timestamp_iso,timestamp_unix,elapsed_sec,frame_type,has_acc,has_gyro,has_angle,acc_x_g,acc_y_g,acc_z_g,gyro_x_dps,gyro_y_dps,gyro_z_dps,roll_deg,pitch_deg,yaw_deg
2021-03-27 01:57:41,1616810261.895135,0.025011,angle,1,1,1,-0.152832,0.125000,1.134277,-1.281738,0.183105,-0.915527,0.802002,16.430054,-37.908325
2021-03-27 01:57:41,1616810261.916019,0.045908,angle,1,1,1,-0.199707,0.088379,0.936035,-2.380371,-0.305176,0.671387,0.730591,16.517944,-37.913818
2021-03-27 01:57:41,1616810261.934756,0.064654,angle,1,1,1,-0.209473,0.064941,0.920410,-0.732422,2.441406,1.159668,0.642700,16.611328,-38.007202
2021-03-27 01:57:41,1616810261.955527,0.085427,angle,1,1,1,-0.233398,-0.126465,0.982910,-2.624512,2.746582,-1.403809,0.576782,16.688232,-38.073120
2021-03-27 01:57:41,1616810261.974225,0.104124,angle,1,1,1,-0.193848,0.001953,0.918457,-0.732422,4.028320,1.708984,0.532837,16.776123,-38.117065
2021-03-27 01:57:41,1616810261.994991,0.124891,angle,1,1,1,-0.065918,0.146484,1.081543,-2.929688,2.441406,-0.427246,0.439453,16.842041,-38.193970
2021-03-27 01:57:42,1616810262.015757,0.145657,angle,1,1,1,-0.115723,0.065430,0.986816,-1.708984,1.037598,0.061035,0.390015,16.896973,-38.259888
2021-03-27 01:57:42,1616810262.034456,0.164356,angle,1,1,1,-0.145996,0.155762,1.140137,-2.136230,-0.732422,-0.610352,0.280151,16.929932,-38.386230
2021-03-27 01:57:42,1616810262.055221,0.185121,angle,1,1,1,-0.229980,0.052734,0.957031,-1.831055,-1.159668,0.427246,0.219727,16.984863,-38.463135
2021-03-27 01:57:42,1616810262.075985,0.205884,angle,1,1,1,-0.212891,-0.019531,0.930176,-1.831055,-0.183105,0.915527,0.087891,17.017822,-38.567505
2021-03-27 01:57:42,1616810262.094683,0.224582,angle,1,1,1,-0.231445,-0.031738,0.944824,-4.760742,1.586914,-1.403809,-0.038452,17.061768,-38.693848
2021-03-27 01:57:42,1616810262.115448,0.245348,angle,1,1,1,-0.221680,-0.172852,0.955078,-2.441406,3.662109,0.000000,-0.164795,17.094727,-38.754272
2021-03-27 01:57:42,1616810262.134132,0.264032,angle,1,1,1,-0.142090,0.177734,1.067383,-4.760742,2.075195,0.732422,-0.324097,17.127686,-38.853149
2021-03-27 01:57:42,1616810262.154897,0.284797,angle,1,1,1,-0.074707,0.005371,1.014648,-2.197266,1.159668,-0.793457,-0.406494,17.144165,-38.941040
2021-03-27 01:57:42,1616810262.175663,0.305562,angle,1,1,1,-0.097168,0.169434,1.013672,-2.563477,-1.586914,1.708984,-0.488892,17.149658,-38.984985
2021-03-27 01:57:42,1616810262.194360,0.324259,angle,1,1,1,-0.210449,0.073730,1.055664,1.098633,-2.136230,-0.305176,-0.499878,17.155151,-39.067383
2021-03-27 01:57:42,1616810262.215127,0.345026,angle,1,1,1,-0.211426,-0.002441,0.957031,-0.183105,-1.953125,1.159668,-0.527344,17.149658,-39.083862
2021-03-27 01:57:42,1616810262.233824,0.363723,angle,1,1,1,-0.208008,0.042480,0.854492,0.854492,1.037598,1.831055,-0.505371,17.193604,-39.160767
2021-03-27 01:57:42,1616810262.254590,0.384489,angle,1,1,1,-0.263672,-0.210449,0.968750,-0.732422,2.136230,-0.976562,-0.499878,17.210083,-39.155273
2021-03-27 01:57:42,1616810262.275376,0.405276,angle,1,1,1,-0.223633,-0.012695,0.885742,2.014160,3.417969,2.319336,-0.444946,17.248535,-39.116821
2021-03-27 01:57:42,1616810262.294074,0.423973,angle,1,1,1,-0.067383,0.208984,1.107422,-0.854492,2.197266,1.586914,-0.439453,17.281494,-39.067383
2021-03-27 01:57:42,1616810262.314837,0.444737,angle,1,1,1,-0.107422,0.029297,0.981934,1.220703,1.647949,1.098633,-0.373535,17.336426,-39.023438
2021-03-27 01:57:42,1616810262.333525,0.463425,angle,1,1,1,-0.139160,0.187012,1.151855,-0.488281,-0.427246,2.746582,-0.379028,17.369385,-38.968506
2021-03-27 01:57:42,1616810262.356360,0.486258,angle,1,1,1,-0.255371,0.094727,0.972168,2.624512,-1.831055,1.464844,-0.307617,17.413330,-38.957520
2021-03-27 01:57:42,1616810262.375087,0.504987,angle,1,1,1,-0.235352,0.015625,0.950195,0.305176,-1.098633,1.831055,-0.302124,17.446289,-38.897095
2021-03-27 01:57:42,1616810262.395851,0.525751,angle,1,1,1,-0.203613,0.090332,0.923828,0.183105,1.525879,1.586914,-0.280151,17.495728,-38.913574
2021-03-27 01:57:42,1616810262.414538,0.544438,angle,1,1,1,-0.276855,-0.047363,0.930176,-0.305176,1.831055,-1.892090,-0.285645,17.517700,-38.891602
2021-03-27 01:57:42,1616810262.435368,0.565267,angle,1,1,1,-0.239746,-0.162109,0.981934,0.549316,3.173828,1.831055,-0.241699,17.561646,-38.880615
2021-03-27 01:57:42,1616810262.456136,0.586035,angle,1,1,1,-0.080078,0.281250,1.036621,-0.793457,1.098633,-0.610352,-0.258179,17.561646,-38.902588
2021-03-27 01:57:42,1616810262.474836,0.604736,angle,1,1,1,-0.085449,0.040527,1.020508,0.854492,0.427246,-0.366211,-0.208740,17.589111,-38.919067
2021-03-27 01:57:42,1616810262.495602,0.625502,angle,1,1,1,-0.118652,0.194336,1.072266,-0.427246,-1.770020,1.159668,-0.230713,17.572632,-38.930054
2021-03-27 01:57:42,1616810262.514301,0.644200,angle,1,1,1,-0.222168,0.098633,1.083008,2.197266,-2.990723,0.061035,-0.181274,17.572632,-38.963013
2021-03-27 01:57:42,1616810262.535087,0.664986,angle,1,1,1,-0.228027,0.074707,0.964355,0.427246,-1.953125,0.488281,-0.181274,17.567139,-38.935547
2021-03-27 01:57:42,1616810262.555856,0.685755,angle,1,1,1,-0.213379,0.016602,0.905762,0.976562,0.366211,-0.427246,-0.148315,17.600098,-39.006958
2021-03-27 01:57:42,1616810262.574555,0.704455,angle,1,1,1,-0.225586,-0.066895,0.924805,0.427246,2.563477,-2.197266,-0.126343,17.622070,-39.023438
2021-03-27 01:57:42,1616810262.595322,0.725222,angle,1,1,1,-0.265137,-0.163086,0.979492,1.281738,3.906250,-0.671387,-0.054932,17.671509,-39.056396
2021-03-27 01:57:42,1616810262.616086,0.745985,angle,1,1,1,-0.119629,0.263184,1.006836,-0.366211,1.708984,1.342773,-0.032959,17.704468,-39.072876
2021-03-27 01:57:42,1616810262.634774,0.764674,angle,1,1,1,-0.102539,0.020508,1.020508,2.685547,1.770020,-0.183105,0.049438,17.748413,-39.100342
2021-03-27 01:57:42,1616810262.655536,0.785434,angle,1,1,1,-0.117188,0.231934,1.089355,0.488281,-1.342773,1.281738,0.104370,17.753906,-39.105835
2021-03-27 01:57:42,1616810262.674329,0.804224,angle,1,1,1,-0.259277,0.078613,1.070312,3.540039,-1.892090,-0.305176,0.186768,17.775879,-39.204712
2021-03-27 01:57:42,1616810262.695136,0.825035,angle,1,1,1,-0.250488,0.062500,0.983887,1.464844,-2.624512,0.915527,0.219727,17.786865,-39.210205
2021-03-27 01:57:42,1616810262.713969,0.843867,angle,1,1,1,-0.247070,0.000488,0.881348,2.807617,0.549316,0.366211,0.285645,17.819824,-39.298096
2021-03-27 01:57:42,1616810262.734744,0.864643,angle,1,1,1,-0.250000,-0.075684,0.939453,-0.305176,1.098633,-2.380371,0.324097,17.841797,-39.353027
2021-03-27 01:57:42,1616810262.755517,0.885417,angle,1,1,1,-0.258789,-0.114258,0.948730,2.807617,3.173828,-0.244141,0.401001,17.869263,-39.418945
2021-03-27 01:57:42,1616810262.774219,0.904118,angle,1,1,1,-0.110840,0.285645,1.031738,-0.793457,0.915527,0.915527,0.439453,17.858276,-39.468384
2021-03-27 01:57:42,1616810262.794986,0.924885,angle,1,1,1,-0.083496,0.055664,1.041992,2.380371,0.854492,-0.366211,0.538330,17.863770,-39.528809
2021-03-27 01:57:42,1616810262.815755,0.945655,angle,1,1,1,-0.135742,0.215332,1.095215,0.793457,-2.868652,0.732422,0.571289,17.814331,-39.572754
2021-03-27 01:57:42,1616810262.834454,0.964354,angle,1,1,1,-0.244141,0.103516,1.071777,3.112793,-3.173828,-1.159668,0.670166,17.786865,-39.649658
2021-03-27 01:57:42,1616810262.855222,0.985121,angle,1,1,1,-0.243652,0.051270,0.959473,1.037598,-3.356934,0.244141,0.681152,17.742920,-39.660645
2021-03-27 01:57:42,1616810262.873951,1.003845,angle,1,1,1,-0.208984,0.051270,0.889160,1.586914,-0.610352,-0.366211,0.736084,17.731934,-39.765015
2021-03-27 01:57:42,1616810262.894744,1.024641,angle,1,1,1,-0.272461,-0.166016,0.959961,-0.427246,0.671387,-3.173828,0.730591,17.698975,-39.803467
2021-03-27 01:57:42,1616810262.915522,1.045421,angle,1,1,1,-0.245117,0.005371,0.891602,1.098633,1.464844,0.610352,0.758057,17.687988,-39.863892
2021-03-27 01:57:42,1616810262.934222,1.064122,angle,1,1,1,-0.070312,0.181152,1.069824,-0.915527,0.183105,-0.732422,0.741577,17.633057,-39.935303
2021-03-27 01:57:42,1616810262.954988,1.084888,angle,1,1,1,-0.098145,0.025391,0.979004,1.159668,-0.427246,-1.159668,0.785522,17.583618,-39.984741
2021-03-27 01:57:42,1616810262.973688,1.103587,angle,1,1,1,-0.169922,0.175293,1.082520,1.770020,-3.234863,0.061035,0.802002,17.512207,-40.067139
2021-03-27 01:57:42,1616810262.994499,1.124396,angle,1,1,1,-0.191895,0.164062,0.947754,1.098633,-5.065918,0.488281,0.823975,17.446289,-40.094604
2021-03-27 01:57:43,1616810263.015280,1.145179,angle,1,1,1,-0.162109,0.018066,1.001465,0.793457,-3.417969,0.061035,0.796509,17.380371,-40.138550
2021-03-27 01:57:43,1616810263.033981,1.163881,angle,1,1,1,-0.231445,0.032227,0.867188,0.244141,-0.976562,-0.915527,0.829468,17.352905,-40.215454
2021-03-27 01:57:43,1616810263.054749,1.184648,angle,1,1,1,-0.274414,-0.235352,0.983398,1.159668,0.793457,-3.601074,0.823975,17.325439,-40.242920
2021-03-27 01:57:43,1616810263.073511,1.203410,angle,1,1,1,-0.226562,0.153809,0.911621,0.000000,2.258301,1.586914,0.840454,17.330933,-40.259399
2021-03-27 01:57:43,1616810263.094264,1.224163,angle,1,1,1,-0.070801,0.147461,1.140625,-0.488281,1.342773,-0.976562,0.834961,17.330933,-40.286865
2021-03-27 01:57:43,1616810263.115036,1.244935,angle,1,1,1,-0.081055,0.098633,0.985352,0.976562,1.281738,0.671387,0.895386,17.352905,-40.270386
2021-03-27 01:57:43,1616810263.133755,1.263654,angle,1,1,1,-0.151855,0.191406,1.181152,0.244141,-1.464844,0.061035,0.878906,17.352905,-40.303345
2021-03-27 01:57:43,1616810263.154521,1.284421,angle,1,1,1,-0.256836,0.127441,0.954590,1.708984,-2.380371,0.244141,0.922852,17.374878,-40.303345
2021-03-27 01:57:43,1616810263.173224,1.303124,angle,1,1,1,-0.194824,0.012695,0.995605,1.098633,-1.098633,0.366211,0.895386,17.385864,-40.314331
2021-03-27 01:57:43,1616810263.193992,1.323890,angle,1,1,1,-0.203125,0.068848,0.864258,0.000000,1.403809,-0.854492,0.928345,17.440796,-40.352783
2021-03-27 01:57:43,1616810263.214768,1.344667,angle,1,1,1,-0.259277,-0.275879,1.030762,0.488281,2.807617,-2.746582,0.911865,17.468262,-40.352783
2021-03-27 01:57:43,1616810263.235537,1.365437,angle,1,1,1,-0.225098,0.136230,0.883789,-0.549316,3.784180,1.342773,0.917358,17.534180,-40.374756
2021-03-27 01:57:43,1616810263.254237,1.384136,angle,1,1,1,-0.065918,0.147949,1.048340,-0.793457,3.173828,-0.488281,0.889893,17.567139,-40.391235
2021-03-27 01:57:43,1616810263.275002,1.404902,angle,1,1,1,-0.061035,0.129395,0.934570,0.488281,0.244141,0.427246,0.928345,17.594604,-40.374756
2021-03-27 01:57:43,1616810263.295796,1.425696,angle,1,1,1,-0.149414,0.159668,1.162598,0.244141,-1.037598,-0.183105,0.900879,17.605591,-40.413208
2021-03-27 01:57:43,1616810263.314497,1.444396,angle,1,1,1,-0.256836,0.084473,0.913086,2.197266,-2.563477,0.183105,0.966797,17.633057,-40.407715
2021-03-27 01:57:43,1616810263.335264,1.465164,angle,1,1,1,-0.196289,0.008789,0.941406,1.342773,-0.915527,0.549316,0.972290,17.627563,-40.237427
2021-03-27 01:57:43,1616810263.354002,1.483901,angle,1,1,1,-0.203125,0.094727,0.840820,-0.305176,0.549316,0.366211,1.027222,17.660522,-40.275879
2021-03-27 01:57:43,1616810263.374767,1.504667,angle,1,1,1,-0.248535,-0.260254,1.013184,1.647949,1.770020,-2.075195,1.038208,17.666016,-40.259399
2021-03-27 01:57:43,1616810263.395534,1.525434,angle,1,1,1,-0.187988,0.166016,0.890625,0.610352,2.258301,1.831055,1.082153,17.682495,-40.253906
2021-03-27 01:57:43,1616810263.414240,1.544130,angle,1,1,1,-0.054199,0.119629,1.076660,0.793457,1.098633,-0.732422,1.098633,17.666016,-40.259399
2021-03-27 01:57:43,1616810263.435024,1.564923,angle,1,1,1,-0.100098,0.160156,0.971680,1.220703,-0.671387,1.220703,1.186523,17.666016,-40.237427
2021-03-27 01:57:43,1616810263.455830,1.585730,angle,1,1,1,-0.154297,0.172363,1.165039,1.220703,-2.868652,0.000000,1.203003,17.622070,-40.226440
2021-03-27 01:57:43,1616810263.474657,1.604556,angle,1,1,1,-0.231934,0.106934,0.956543,2.075195,-3.417969,0.061035,1.274414,17.611084,-40.220947
2021-03-27 01:57:43,1616810263.495440,1.625339,angle,1,1,1,-0.210449,-0.021484,0.984375,1.708984,-1.708984,0.793457,1.279907,17.583618,-40.177002
2021-03-27 01:57:43,1616810263.514145,1.644044,angle,1,1,1,-0.226074,0.083008,0.873535,-0.488281,0.122070,0.122070,1.307373,17.578125,-40.204468
2021-03-27 01:57:43,1616810263.534914,1.664813,angle,1,1,1,-0.270508,-0.238770,0.993652,0.549316,0.854492,-1.953125,1.301880,17.556152,-40.171509
2021-03-27 01:57:43,1616810263.555681,1.685581,angle,1,1,1,-0.213379,0.164062,0.865723,-0.915527,2.014160,2.014160,1.307373,17.561646,-40.127563
2021-03-27 01:57:43,1616810263.574420,1.704320,angle,1,1,1,-0.083008,0.107910,1.099121,-0.915527,0.793457,-0.915527,1.268921,17.539673,-40.144043
2021-03-27 01:57:43,1616810263.595190,1.725090,angle,1,1,1,-0.104004,0.085449,0.977539,0.000000,-0.488281,-0.122070,1.285400,17.528687,-40.138550
2021-03-27 01:57:43,1616810263.613878,1.743778,angle,1,1,1,-0.164551,0.207520,1.159180,0.610352,-2.624512,-0.183105,1.257935,17.484741,-40.149536
2021-03-27 01:57:43,1616810263.634642,1.764542,angle,1,1,1,-0.213379,0.113281,0.979492,1.770020,-2.929688,-0.244141,1.296387,17.473755,-40.187988
2021-03-27 01:57:43,1616810263.655410,1.785309,angle,1,1,1,-0.197266,0.062988,0.962402,0.610352,-1.953125,0.976562,1.285400,17.462769,-40.144043
2021-03-27 01:57:43,1616810263.674096,1.803995,angle,1,1,1,-0.177734,0.092773,0.892090,-0.183105,1.159668,0.732422,1.290894,17.495728,-40.160522
2021-03-27 01:57:43,1616810263.694861,1.824760,angle,1,1,1,-0.259766,-0.266602,1.046875,0.915527,2.014160,-2.563477,1.285400,17.512207,-40.116577
2021-03-27 01:57:43,1616810263.713562,1.843461,angle,1,1,1,-0.251953,-0.008301,0.893555,0.732422,3.112793,0.488281,1.318359,17.550659,-40.078125
2021-03-27 01:57:43,1616810263.734328,1.864227,angle,1,1,1,-0.097656,0.248535,1.097656,-1.953125,1.953125,0.671387,1.296387,17.561646,-40.061646
2021-03-27 01:57:43,1616810263.755097,1.884996,angle,1,1,1,-0.109375,0.030762,1.018555,1.647949,1.708984,-1.770020,1.329346,17.589111,-40.067139
2021-03-27 01:57:43,1616810263.773797,1.903696,angle,1,1,1,-0.120117,0.188477,1.104004,0.366211,-1.464844,0.427246,1.334839,17.589111,-40.039673
2021-03-27 01:57:43,1616810263.794562,1.924462,angle,1,1,1,-0.216797,0.147461,1.087402,2.441406,-2.136230,-0.671387,1.356812,17.589111,-40.072632
2021-03-27 01:57:43,1616810263.813262,1.943162,angle,1,1,1,-0.203613,0.093750,0.958008,-0.122070,-3.173828,0.488281,1.362305,17.594604,-40.017700
2021-03-27 01:57:43,1616810263.834028,1.963927,angle,1,1,1,-0.208008,0.045898,0.900879,0.244141,0.000000,0.976562,1.340332,17.616577,-40.012207
2021-03-27 01:57:43,1616810263.854793,1.984692,angle,1,1,1,-0.219238,-0.006348,0.848145,-1.464844,0.854492,-2.075195,1.329346,17.638550,-40.017700
2021-03-27 01:57:43,1616810263.873514,2.003412,angle,1,1,1,-0.268555,-0.206543,0.997070,1.159668,3.234863,-1.159668,1.318359,17.666016,-39.984741
2021-03-27 01:57:43,1616810263.894286,2.024185,angle,1,1,1,-0.144043,0.160156,0.837402,-2.746582,2.319336,1.220703,1.301880,17.693481,-39.979248
2021-03-27 01:57:43,1616810263.915106,2.044953,angle,1,1,1,-0.077148,0.216797,1.044922,0.305176,1.831055,-1.892090,1.301880,17.709961,-40.017700
2021-03-27 01:57:43,1616810263.933810,2.063707,angle,1,1,1,-0.094727,0.070312,0.927246,0.854492,-0.244141,-0.183105,1.356812,17.726440,-40.017700
2021-03-27 01:57:43,1616810263.954584,2.084484,angle,1,1,1,-0.133301,0.196289,1.110352,2.197266,-2.075195,-0.854492,1.378784,17.698975,-40.067139
2021-03-27 01:57:43,1616810263.973308,2.103208,angle,1,1,1,-0.235352,0.205566,1.046387,1.586914,-3.662109,-0.793457,1.433716,17.677002,-40.116577
2021-03-27 01:57:43,1616810263.994074,2.123974,angle,1,1,1,-0.225586,0.055176,0.985840,1.098633,-3.112793,-0.488281,1.417236,17.622070,-40.149536
2021-03-27 01:57:44,1616810264.014836,2.144735,angle,1,1,1,-0.226562,0.017090,0.907227,-0.854492,-1.770020,-1.220703,1.411743,17.583618,-40.248413
2021-03-27 01:57:44,1616810264.033538,2.163436,angle,1,1,1,-0.249023,-0.044922,0.972168,-0.305176,0.305176,-4.028320,1.389771,17.534180,-40.308838
2021-03-27 01:57:44,1616810264.054308,2.184207,angle,1,1,1,-0.263184,-0.117188,0.864746,-0.488281,0.976562,-1.586914,1.395264,17.512207,-40.369263
2021-03-27 01:57:44,1616810264.072996,2.202896,angle,1,1,1,-0.096680,0.273926,0.950195,-1.953125,1.220703,-0.061035,1.351318,17.479248,-40.424194
2021-03-27 01:57:44,1616810264.093762,2.223661,angle,1,1,1,-0.032715,0.125977,1.100586,1.159668,1.403809,-1.953125,1.395264,17.468262,-40.484619
2021-03-27 01:57:44,1616810264.114512,2.244411,angle,1,1,1,-0.090332,0.083984,0.968750,0.671387,-0.061035,-1.647949,1.428223,17.457275,-40.484619
2021-03-27 01:57:44,1616810264.135318,2.265218,angle,1,1,1,-0.140137,0.220703,1.141602,0.976562,-1.953125,-0.671387,1.428223,17.418823,-40.479126
2021-03-27 01:57:44,1616810264.154008,2.283907,angle,1,1,1,-0.234863,0.112793,1.006836,4.028320,-2.380371,-1.586914,1.527100,17.418823,-40.517578
2021-03-27 01:57:44,1616810264.174774,2.304673,angle,1,1,1,-0.199219,0.090332,0.989746,1.403809,-2.990723,0.183105,1.554565,17.396851,-40.528564
2021-03-27 01:57:44,1616810264.195542,2.325442,angle,1,1,1,-0.221191,0.005371,0.926270,2.624512,-0.793457,-0.793457,1.609497,17.396851,-40.605469
2021-03-27 01:57:44,1616810264.214240,2.344139,angle,1,1,1,-0.231934,-0.055664,0.947266,-0.183105,0.122070,-3.295898,1.625977,17.385864,-40.676880
2021-03-27 01:57:44,1616810264.235003,2.364903,angle,1,1,1,-0.296875,-0.156250,0.976562,1.342773,1.770020,-1.892090,1.647949,17.374878,-40.737305
2021-03-27 01:57:44,1616810264.253728,2.383627,angle,1,1,1,-0.176758,0.272949,0.922852,-2.075195,1.342773,0.000000,1.625977,17.369385,-40.803223
2021-03-27 01:57:44,1616810264.274501,2.404402,angle,1,1,1,-0.075684,0.121094,1.110840,-0.976562,0.793457,-2.624512,1.598511,17.347412,-40.907593
2021-03-27 01:57:44,1616810264.295305,2.425204,angle,1,1,1,-0.111816,0.157715,0.996094,-1.525879,-1.281738,-0.732422,1.576538,17.319946,-40.968018
2021-03-27 01:57:44,1616810264.314008,2.443908,angle,1,1,1,-0.160645,0.262695,1.125977,-0.549316,-2.441406,-1.220703,1.499634,17.292480,-41.083374
2021-03-27 01:57:44,1616810264.334774,2.464673,angle,1,1,1,-0.258789,0.263184,0.991699,-0.488281,-4.821777,-1.586914,1.450195,17.254028,-41.198730
2021-03-27 01:57:44,1616810264.353462,2.483362,angle,1,1,1,-0.226562,0.034668,0.999023,-0.610352,-3.845215,-2.014160,1.351318,17.193604,-41.325073
2021-03-27 01:57:44,1616810264.374226,2.504126,angle,1,1,1,-0.182617,0.157715,0.941406,-5.004883,-2.929688,-1.892090,1.246948,17.122192,-41.434937
2021-03-27 01:57:44,1616810264.394989,2.524889,angle,1,1,1,-0.359863,-0.270020,1.041504,-1.403809,-0.976562,-5.187988,1.126099,17.039795,-41.566772
2021-03-27 01:57:44,1616810264.413676,2.543576,angle,1,1,1,-0.224121,0.255371,0.733398,-3.540039,-0.732422,-0.305176,1.049194,16.957397,-41.682129
2021-03-27 01:57:44,1616810264.434441,2.564340,angle,1,1,1,-0.065430,0.171387,1.102051,-5.004883,-1.831055,-3.112793,0.862427,16.814575,-41.802979
2021-03-27 01:57:44,1616810264.455209,2.585109,angle,1,1,1,-0.040039,0.035645,0.831543,-2.380371,-1.647949,-3.601074,0.823975,16.726685,-41.934814
2021-03-27 01:57:44,1616810264.473899,2.603798,angle,1,1,1,-0.104980,0.094727,1.137207,-3.173828,-4.333496,-3.784180,0.659180,16.578369,-42.017212
2021-03-27 01:57:44,1616810264.494671,2.624571,angle,1,1,1,-0.213379,0.144043,0.991699,0.793457,-6.713867,-2.685547,0.653687,16.430054,-42.198486
2021-03-27 01:57:44,1616810264.513373,2.643272,angle,1,1,1,-0.146973,0.253418,1.042480,-3.906250,-8.728027,-1.586914,0.521851,16.199341,-42.297363
2021-03-27 01:57:44,1616810264.534138,2.664038,angle,1,1,1,-0.128906,-0.011230,0.883301,1.220703,-6.469727,-2.502441,0.521851,16.007080,-42.506104
2021-03-27 01:57:44,1616810264.554903,2.684803,angle,1,1,1,-0.180176,-0.046875,0.916992,-1.220703,-7.690430,-4.089355,0.455933,15.743408,-42.643433
2021-03-27 01:57:44,1616810264.573607,2.703506,angle,1,1,1,-0.237793,-0.093750,0.993652,2.319336,-6.713867,-3.479004,0.455933,15.479736,-42.879639
2021-03-27 01:57:44,1616810264.594375,2.724275,angle,1,1,1,-0.116699,0.207520,0.930664,-2.990723,-8.239746,-0.244141,0.411987,15.161133,-43.033447
2021-03-27 01:57:44,1616810264.613063,2.742962,angle,1,1,1,-0.011230,-0.180664,1.033203,0.854492,-6.042480,-5.004883,0.379028,14.837036,-43.264160
2021-03-27 01:57:44,1616810264.633826,2.763725,angle,1,1,1,-0.063477,0.148438,1.003418,-4.028320,-10.620117,-1.159668,0.291138,14.452515,-43.395996
2021-03-27 01:57:44,1616810264.654601,2.784496,angle,1,1,1,-0.124512,-0.175781,1.080078,2.319336,-10.314941,-3.784180,0.247192,14.078979,-43.571777
2021-03-27 01:57:44,1616810264.673307,2.803206,angle,1,1,1,-0.074707,0.239258,0.912109,-3.662109,-10.437012,0.976562,0.175781,13.727417,-43.670654
2021-03-27 01:57:44,1616810264.694111,2.824010,angle,1,1,1,-0.063965,-0.070801,1.053223,2.197266,-5.798340,-3.356934,0.153809,13.463745,-43.890381
2021-03-27 01:57:44,1616810264.712809,2.842709,angle,1,1,1,-0.075684,0.157227,0.902832,-0.488281,-4.333496,-1.098633,0.170288,13.293457,-44.016724
2021-03-27 01:57:44,1616810264.733576,2.863476,angle,1,1,1,-0.125488,-0.148438,1.090820,5.004883,-0.854492,-4.028320,0.214233,13.161621,-44.230957
2021-03-27 01:57:44,1616810264.754343,2.884242,angle,1,1,1,-0.038086,-0.054688,0.951660,4.150391,0.122070,-2.563477,0.302124,13.161621,-44.412231
2021-03-27 01:57:44,1616810264.773047,2.902946,angle,1,1,1,0.014648,0.069824,1.086426,1.464844,3.723145,-2.258301,0.362549,13.233032,-44.566040
2021-03-27 01:57:44,1616810264.793820,2.923719,angle,1,1,1,0.022949,-0.121094,0.997070,5.432129,5.615234,-2.197266,0.494385,13.375854,-44.763794
2021-03-27 01:57:44,1616810264.814587,2.944487,angle,1,1,1,0.061035,0.049316,1.229492,-0.305176,2.807617,-1.525879,0.461426,13.491211,-44.851685
2021-03-27 01:57:44,1616810264.833316,2.963215,angle,1,1,1,-0.087891,-0.063965,1.002441,3.356934,3.417969,-2.014160,0.538330,13.677979,-45.000000
2021-03-27 01:57:44,1616810264.854082,2.983982,angle,1,1,1,-0.081055,-0.023926,1.110840,-0.427246,2.990723,-2.746582,0.428467,13.815308,-45.071411
2021-03-27 01:57:44,1616810264.872810,3.002704,angle,1,1,1,-0.124512,0.026367,0.831543,0.244141,4.333496,-2.014160,0.428467,14.007568,-45.225220
2021-03-27 01:57:44,1616810264.893600,3.023499,angle,1,1,1,-0.160156,-0.225586,1.122070,0.000000,4.638672,-6.530762,0.329590,14.166870,-45.379028
2021-03-27 01:57:44,1616810264.914366,3.044266,angle,1,1,1,-0.212402,0.132812,0.841797,-0.244141,6.103516,-3.356934,0.318604,14.370117,-45.598755
2021-03-27 01:57:44,1616810264.933061,3.062957,angle,1,1,1,-0.053711,-0.002930,1.186035,-1.586914,5.798340,-7.873535,0.197754,14.534912,-45.873413
2021-03-27 01:57:44,1616810264.953836,3.083736,angle,1,1,1,-0.037598,0.120117,0.963867,-3.845215,4.272461,-5.554199,0.087891,14.716187,-46.142578
2021-03-27 01:57:44,1616810264.972538,3.102437,angle,1,1,1,-0.161621,0.054688,1.141602,-3.479004,2.197266,-8.544922,-0.159302,14.842529,-46.516113
2021-03-27 01:57:44,1616810264.993306,3.123204,angle,1,1,1,-0.133301,0.124023,1.112305,-7.507324,-0.671387,-7.507324,-0.472412,14.913940,-46.829224
2021-03-27 01:57:45,1616810265.014077,3.143976,angle,1,1,1,-0.065918,0.087402,0.835449,-7.202148,-1.281738,-6.713867,-0.802002,14.941406,-47.224731
2021-03-27 01:57:45,1616810265.034853,3.164754,angle,1,1,1,-0.278320,-0.288574,1.066895,-8.300781,-2.136230,-11.474609,-1.235962,14.891968,-47.570801
2021-03-27 01:57:45,1616810265.053608,3.183506,angle,1,1,1,-0.232910,0.083008,0.785156,-8.789062,-0.976562,-5.554199,-1.609497,14.831543,-47.900391
2021-03-27 01:57:45,1616810265.074381,3.204280,angle,1,1,1,-0.040039,-0.011719,0.998047,-9.155273,0.000000,-8.666992,-2.015991,14.721680,-48.262939
2021-03-27 01:57:45,1616810265.093198,3.223098,angle,1,1,1,-0.083984,0.087891,0.851562,-7.263184,-2.197266,-7.019043,-2.301636,14.600830,-48.587036
2021-03-27 01:57:45,1616810265.113963,3.243863,angle,1,1,1,-0.135742,0.095703,1.083008,-2.868652,-3.479004,-8.117676,-2.559814,14.474487,-48.960571
2021-03-27 01:57:45,1616810265.134725,3.264625,angle,1,1,1,-0.163086,0.211914,0.825684,-2.685547,-5.371094,-5.554199,-2.686157,14.370117,-49.383545
2021-03-27 01:57:45,1616810265.153445,3.283344,angle,1,1,1,-0.071289,-0.133789,0.992676,1.708984,-4.577637,-8.789062,-2.752075,14.260254,-49.729614
2021-03-27 01:57:45,1616810265.174208,3.304107,angle,1,1,1,-0.134766,-0.005371,0.928223,-1.464844,-3.417969,-9.399414,-2.774048,14.194336,-50.158081
2021-03-27 01:57:45,1616810265.192896,3.322795,angle,1,1,1,-0.321777,-0.193848,0.897461,3.112793,-1.403809,-10.070801,-2.730103,14.122925,-50.597534
2021-03-27 01:57:45,1616810265.213665,3.343564,angle,1,1,1,-0.160156,0.154785,0.936523,-0.366211,-0.671387,-7.568359,-2.686157,14.078979,-50.982056
2021-03-27 01:57:45,1616810265.234429,3.364328,angle,1,1,1,-0.076172,0.077148,1.046387,0.732422,0.122070,-8.850098,-2.631226,14.007568,-51.399536
2021-03-27 01:57:45,1616810265.253168,3.383067,angle,1,1,1,-0.081055,0.144043,1.130859,0.366211,-2.197266,-7.446289,-2.603760,13.903198,-51.745605
2021-03-27 01:57:45,1616810265.273933,3.403833,angle,1,1,1,-0.146973,0.184570,1.090820,0.305176,-4.333496,-6.408691,-2.587280,13.793335,-52.124634
2021-03-27 01:57:45,1616810265.294699,3.424598,angle,1,1,1,-0.145996,0.013672,1.046387,0.244141,-5.615234,-7.263184,-2.614746,13.683472,-52.459717
2021-03-27 01:57:45,1616810265.313405,3.443304,angle,1,1,1,-0.139648,-0.050293,0.930176,0.427246,-4.760742,-7.446289,-2.609253,13.595581,-52.882690
2021-03-27 01:57:45,1616810265.334168,3.464068,angle,1,1,1,-0.300781,-0.262695,1.108887,2.197266,-2.685547,-12.756348,-2.614746,13.513184,-53.316650
2021-03-27 01:57:45,1616810265.352866,3.482766,angle,1,1,1,-0.219238,0.097656,0.910645,-0.488281,-0.122070,-8.789062,-2.609253,13.485718,-53.756104
2021-03-27 01:57:45,1616810265.373632,3.503532,angle,1,1,1,-0.033691,0.083984,1.030762,-1.159668,0.976562,-10.864258,-2.642212,13.463745,-54.228516
2021-03-27 01:57:45,1616810265.394406,3.524306,angle,1,1,1,-0.029785,0.134766,1.035645,-0.122070,0.122070,-8.850098,-2.653198,13.430786,-54.640503
2021-03-27 01:57:45,1616810265.413096,3.542996,angle,1,1,1,-0.060059,0.172852,1.135254,0.366211,-1.464844,-6.896973,-2.691650,13.386841,-55.014038
2021-03-27 01:57:45,1616810265.433864,3.563764,angle,1,1,1,-0.077637,0.079590,0.984863,0.549316,-2.990723,-5.676270,-2.680664,13.392334,-55.371094
2021-03-27 01:57:45,1616810265.452566,3.582465,angle,1,1,1,-0.064453,-0.149902,0.983398,0.976562,-1.037598,-5.676270,-2.741089,13.419800,-55.706177
2021-03-27 01:57:45,1616810265.473334,3.603233,angle,1,1,1,-0.106445,-0.062988,0.874023,-1.953125,2.014160,-7.568359,-2.757568,13.507690,-56.090698
2021-03-27 01:57:45,1616810265.494101,3.624000,angle,1,1,1,-0.226074,-0.201172,0.966309,1.281738,5.554199,-7.873535,-2.779541,13.628540,-56.436768
2021-03-27 01:57:45,1616810265.512800,3.642700,angle,1,1,1,-0.087891,0.204102,0.960449,-4.089355,4.882812,-4.089355,-2.828979,13.754883,-56.749878
2021-03-27 01:57:45,1616810265.533567,3.663467,angle,1,1,1,-0.014160,-0.018555,0.973633,-0.122070,5.493164,-5.615234,-2.872925,13.881226,-57.090454
2021-03-27 01:57:45,1616810265.554334,3.684234,angle,1,1,1,-0.018066,0.178711,1.193848,-3.723145,2.075195,-2.807617,-2.993774,13.991089,-57.315674
2021-03-27 01:57:45,1616810265.573034,3.702934,angle,1,1,1,-0.089844,0.089355,1.074219,-3.356934,0.000000,0.366211,-3.103638,14.073486,-57.557373
2021-03-27 01:57:45,1616810265.593801,3.723701,angle,1,1,1,-0.067383,-0.065430,0.976074,-2.563477,-0.305176,0.061035,-3.306885,14.117432,-57.672729
2021-03-27 01:57:45,1616810265.612482,3.742381,angle,1,1,1,-0.065430,0.047852,0.867188,-5.676270,0.976562,0.793457,-3.482666,14.177856,-57.804565
2021-03-27 01:57:45,1616810265.633245,3.763144,angle,1,1,1,-0.261719,-0.217773,0.944824,-2.380371,1.831055,1.586914,-3.663940,14.205322,-57.832031
2021-03-27 01:57:45,1616810265.653999,3.783898,angle,1,1,1,-0.163574,0.098633,0.860352,-4.760742,0.793457,3.662109,-3.806763,14.232788,-57.826538
2021-03-27 01:57:45,1616810265.672691,3.802590,angle,1,1,1,-0.119141,-0.123535,0.957031,-2.136230,2.197266,1.892090,-3.905640,14.249268,-57.826538
2021-03-27 01:57:45,1616810265.693460,3.823359,angle,1,1,1,-0.156250,0.031250,0.977539,-1.586914,-1.464844,2.685547,-3.955078,14.254761,-57.788086
2021-03-27 01:57:45,1616810265.712161,3.842061,angle,1,1,1,-0.228516,-0.070312,1.006836,1.159668,-1.892090,3.417969,-3.938599,14.227295,-57.777100
2021-03-27 01:57:45,1616810265.732929,3.862828,angle,1,1,1,-0.228027,0.023926,0.986816,-0.305176,-4.821777,3.723145,-3.916626,14.161377,-57.705688
2021-03-27 01:57:45,1616810265.753728,3.883625,angle,1,1,1,-0.201172,-0.063965,0.934082,2.136230,-3.173828,4.272461,-3.856201,14.111938,-57.683716
2021-03-27 01:57:45,1616810265.772435,3.902335,angle,1,1,1,-0.297363,-0.131348,0.996094,1.647949,-2.258301,3.479004,-3.795776,14.046021,-57.617798
2021-03-27 01:57:45,1616810265.793237,3.923136,angle,1,1,1,-0.248535,0.049316,0.899414,1.220703,-1.770020,6.713867,-3.735352,13.996582,-57.524414
2021-03-27 01:57:45,1616810265.814002,3.943901,angle,1,1,1,-0.178711,-0.066406,1.042969,1.464844,-0.976562,4.638672,-3.669434,13.963623,-57.425537
2021-03-27 01:57:45,1616810265.832701,3.962601,angle,1,1,1,-0.224609,0.002441,0.920410,2.563477,-0.427246,5.981445,-3.559570,13.991089,-57.304688
2021-03-27 01:57:45,1616810265.853465,3.983364,angle,1,1,1,-0.288574,-0.058105,1.148926,3.173828,-0.488281,3.601074,-3.444214,14.040527,-57.233276
2021-03-27 01:57:45,1616810265.872179,4.002078,angle,1,1,1,-0.331543,0.079102,0.961426,2.441406,-0.915527,6.469727,-3.235474,14.155884,-57.128906
2021-03-27 01:57:45,1616810265.892954,4.022851,angle,1,1,1,-0.208496,-0.239258,1.067383,6.835938,2.197266,2.502441,-3.076172,14.304199,-57.090454
2021-03-27 01:57:45,1616810265.913728,4.043627,angle,1,1,1,-0.188965,0.045898,1.059570,-0.976562,5.554199,3.601074,-2.911377,14.567871,-57.024536
2021-03-27 01:57:45,1616810265.932414,4.062314,angle,1,1,1,-0.251465,-0.172363,1.111328,5.798340,11.474609,2.258301,-2.752075,14.930420,-56.986084
2021-03-27 01:57:45,1616810265.953177,4.083076,angle,1,1,1,-0.134766,0.286621,1.009766,-0.061035,11.230469,6.225586,-2.653198,15.353394,-56.815796
2021-03-27 01:57:45,1616810265.973940,4.103840,angle,1,1,1,0.083496,-0.081055,1.266602,1.831055,11.840820,5.249023,-2.548828,15.803833,-56.722412
2021-03-27 01:57:45,1616810265.994704,4.124603,angle,1,1,1,-0.023926,0.040527,1.201172,-3.540039,10.620117,4.455566,-2.598267,16.265259,-56.502686
2021-03-27 01:57:46,1616810266.013417,4.143313,angle,1,1,1,-0.213867,-0.153809,1.069824,-1.953125,12.390137,10.253906,-2.598267,16.748657,-56.266479
2021-03-27 01:57:46,1616810266.034199,4.164098,angle,1,1,1,-0.100586,0.089844,1.054688,-1.708984,9.277344,4.455566,-2.741089,17.160645,-55.986328
2021-03-27 01:57:46,1616810266.052899,4.182799,angle,1,1,1,-0.150391,-0.050781,0.841797,-3.295898,9.277344,5.920410,-2.713623,17.523193,-55.799561
2021-03-27 01:57:46,1616810266.073664,4.203563,angle,1,1,1,-0.063965,-0.079590,1.155762,2.624512,10.314941,0.366211,-2.735596,17.825317,-55.612793
2021-03-27 01:57:46,1616810266.094426,4.224325,angle,1,1,1,-0.060059,0.039062,0.743164,-0.793457,6.591797,5.432129,-2.620239,18.083496,-55.415039
2021-03-27 01:57:46,1616810266.113125,4.243024,angle,1,1,1,0.060547,-0.035645,1.221191,4.028320,6.958008,2.746582,-2.537842,18.242798,-55.228271
2021-03-27 01:57:46,1616810266.133887,4.263786,angle,1,1,1,0.067383,-0.032227,0.927246,-0.122070,2.441406,6.286621,-2.378540,18.336182,-54.937134
2021-03-27 01:57:46,1616810266.152572,4.282472,angle,1,1,1,0.058594,-0.058105,1.183105,2.929688,2.685547,6.042480,-2.285156,18.380127,-54.569092
2021-03-27 01:57:46,1616810266.173334,4.303233,angle,1,1,1,-0.085938,0.067383,0.837402,-2.136230,3.479004,8.605957,-2.202759,18.446045,-54.129639
2021-03-27 01:57:46,1616810266.194096,4.323996,angle,1,1,1,-0.065430,-0.115234,1.031738,2.563477,4.577637,6.164551,-2.197266,18.511963,-53.734131
2021-03-27 01:57:46,1616810266.212781,4.342680,angle,1,1,1,-0.042969,0.153320,0.873535,-2.380371,5.737305,7.202148,-2.125854,18.627319,-53.322144
2021-03-27 01:57:46,1616810266.233543,4.363442,angle,1,1,1,-0.138672,-0.165039,1.006836,3.540039,7.873535,5.432129,-2.043457,18.737183,-52.954102
2021-03-27 01:57:46,1616810266.252240,4.382140,angle,1,1,1,-0.020020,0.214844,0.955566,-1.831055,4.455566,6.652832,-2.010498,18.814087,-52.575073
2021-03-27 01:57:46,1616810266.273000,4.402900,angle,1,1,1,-0.057129,-0.076660,1.034668,1.525879,3.723145,3.417969,-1.955566,18.852539,-52.267456
2021-03-27 01:57:46,1616810266.293763,4.423663,angle,1,1,1,-0.025391,0.101562,1.082031,-2.807617,0.732422,4.882812,-1.977539,18.825073,-51.921387
2021-03-27 01:57:46,1616810266.312462,4.442361,angle,1,1,1,-0.115234,0.061523,1.017578,-0.549316,-1.098633,2.807617,-1.983032,18.775635,-51.674194
2021-03-27 01:57:46,1616810266.333226,4.463125,angle,1,1,1,-0.124023,-0.027832,1.016113,-3.295898,-2.380371,3.479004,-2.092896,18.671265,-51.394043
2021-03-27 01:57:46,1616810266.354030,4.483929,angle,1,1,1,-0.076660,0.089355,0.877441,-4.760742,-2.502441,3.112793,-2.202759,18.539429,-51.174316
2021-03-27 01:57:46,1616810266.372728,4.502628,angle,1,1,1,-0.249512,-0.309570,0.978027,-0.915527,-0.122070,-0.061035,-2.307129,18.380127,-50.982056
2021-03-27 01:57:46,1616810266.393496,4.523396,angle,1,1,1,-0.123535,0.254883,0.850586,-5.981445,-0.305176,3.662109,-2.449951,18.237305,-50.795288
2021-03-27 01:57:46,1616810266.412183,4.542083,angle,1,1,1,-0.044434,-0.054199,0.979980,-1.281738,0.671387,-0.488281,-2.532349,18.110962,-50.690918
2021-03-27 01:57:46,1616810266.432944,4.562844,angle,1,1,1,-0.084961,0.123047,0.958496,-3.295898,-1.281738,1.464844,-2.625732,18.001099,-50.504150
2021-03-27 01:57:46,1616810266.453707,4.583606,angle,1,1,1,-0.147461,0.087891,1.066895,1.403809,-1.770020,0.122070,-2.647705,17.929688,-50.427246
2021-03-27 01:57:46,1616810266.472393,4.602293,angle,1,1,1,-0.130371,0.091797,0.929199,-0.549316,-3.601074,0.732422,-2.664185,17.847290,-50.273438
2021-03-27 01:57:46,1616810266.493203,4.623086,angle,1,1,1,-0.154297,-0.082520,0.903809,2.624512,-1.403809,-0.061035,-2.614746,17.786865,-50.163574
2021-03-27 01:57:46,1616810266.511949,4.641846,angle,1,1,1,-0.129395,0.028320,0.844727,1.708984,-0.793457,-0.244141,-2.543335,17.726440,-50.048218
2021-03-27 01:57:46,1616810266.532720,4.662618,angle,1,1,1,-0.169922,-0.187012,0.978027,2.197266,1.403809,-1.403809,-2.477417,17.633057,-49.938354
2021-03-27 01:57:46,1616810266.553484,4.683384,angle,1,1,1,-0.127441,0.054199,0.928223,1.586914,0.061035,0.793457,-2.356567,17.539673,-49.828491
2021-03-27 01:57:46,1616810266.572184,4.702083,angle,1,1,1,0.020996,0.017090,1.093750,2.136230,-0.488281,-1.220703,-2.268677,17.424316,-49.724121
2021-03-27 01:57:46,1616810266.592947,4.722846,angle,1,1,1,-0.067871,0.110352,1.015625,1.464844,-3.112793,1.342773,-2.158813,17.292480,-49.614258
2021-03-27 01:57:46,1616810266.613710,4.743609,angle,1,1,1,-0.133789,0.121094,1.132812,3.356934,-4.638672,0.122070,-2.070923,17.144165,-49.537354
2021-03-27 01:57:46,1616810266.632408,4.762307,angle,1,1,1,-0.196777,0.099121,0.966797,1.892090,-6.408691,0.671387,-1.983032,16.984863,-49.449463
2021-03-27 01:57:46,1616810266.653171,4.783070,angle,1,1,1,-0.225098,-0.026367,0.965820,3.051758,-4.150391,-0.427246,-1.906128,16.853027,-49.449463
2021-03-27 01:57:46,1616810266.671856,4.801756,angle,1,1,1,-0.239746,-0.080078,0.963867,1.159668,-1.953125,-2.502441,-1.884155,16.737671,-49.460449
2021-03-27 01:57:46,1616810266.692619,4.822519,angle,1,1,1,-0.181152,-0.082031,0.907715,0.915527,0.000000,-0.610352,-1.840210,16.638794,-49.476929
2021-03-27 01:57:46,1616810266.713384,4.843284,angle,1,1,1,-0.055176,-0.020508,1.032227,-0.793457,0.183105,-2.441406,-1.873169,16.539917,-49.515381
2021-03-27 01:57:46,1616810266.732071,4.861971,angle,1,1,1,-0.036621,0.016602,1.003418,-0.549316,-0.488281,-2.258301,-1.873169,16.441040,-49.542847
2021-03-27 01:57:46,1616810266.752833,4.882733,angle,1,1,1,-0.104492,0.085938,1.152832,-0.366211,-3.356934,-1.037598,-1.917114,16.320190,-49.548340
2021-03-27 01:57:46,1616810266.771532,4.901432,angle,1,1,1,-0.079102,0.182129,0.979004,-0.244141,-4.699707,1.647949,-1.928101,16.221313,-49.542847
2021-03-27 01:57:46,1616810266.792295,4.922195,angle,1,1,1,-0.111816,-0.055664,1.064453,0.122070,-5.310059,-1.647949,-2.005005,16.089478,-49.548340
2021-03-27 01:57:46,1616810266.813060,4.942959,angle,1,1,1,-0.224609,0.057617,0.857422,-1.647949,-4.333496,0.549316,-2.032471,15.985107,-49.526367
2021-03-27 01:57:46,1616810266.831759,4.961659,angle,1,1,1,-0.381348,-0.231934,1.073730,0.610352,-2.441406,-4.089355,-2.120361,15.858765,-49.548340
2021-03-27 01:57:46,1616810266.852521,4.982421,angle,1,1,1,-0.288574,0.160645,0.859863,-2.624512,-1.892090,-0.366211,-2.175293,15.770874,-49.570312
2021-03-27 01:57:46,1616810266.873317,5.003215,angle,1,1,1,-0.109863,0.007812,1.031250,-0.793457,-0.061035,-4.028320,-2.235718,15.677490,-49.680176
2021-03-27 01:57:46,1616810266.892304,5.022193,angle,1,1,1,-0.174805,0.161133,0.989746,-3.112793,-1.647949,-3.906250,-2.285156,15.606079,-49.740601
2021-03-27 01:57:46,1616810266.913146,5.043043,angle,1,1,1,-0.230957,0.062012,1.093750,0.061035,-2.868652,-5.676270,-2.351074,15.562134,-49.905396
2021-03-27 01:57:46,1616810266.933919,5.063818,angle,1,1,1,-0.188965,0.153809,0.908203,-1.464844,-3.540039,-5.432129,-2.395020,15.556641,-50.026245
2021-03-27 01:57:46,1616810266.952618,5.082517,angle,1,1,1,-0.161133,-0.004883,0.948242,-0.488281,-3.234863,-7.080078,-2.460938,15.556641,-50.202026
2021-03-27 01:57:46,1616810266.973384,5.103284,angle,1,1,1,-0.167969,0.131836,0.874512,-1.098633,-1.647949,-6.774902,-2.499390,15.562134,-50.388794
2021-03-27 01:57:46,1616810266.992152,5.122052,angle,1,1,1,-0.348145,-0.119629,0.974121,2.136230,-0.610352,-8.605957,-2.499390,15.562134,-50.630493
2021-03-27 01:57:47,1616810267.012917,5.142817,angle,1,1,1,-0.235352,0.019531,0.833496,1.464844,0.183105,-7.019043,-2.466431,15.540161,-50.877686
2021-03-27 01:57:47,1616810267.033703,5.163603,angle,1,1,1,-0.079102,-0.052246,1.037109,1.708984,-1.464844,-8.178711,-2.438965,15.452271,-51.168823
2021-03-27 01:57:47,1616810267.052389,5.182289,angle,1,1,1,-0.145508,-0.049805,0.952148,2.075195,-3.723145,-7.812500,-2.378540,15.353394,-51.476440
2021-03-27 01:57:47,1616810267.073161,5.203059,angle,1,1,1,-0.206543,-0.032227,0.989258,3.417969,-5.981445,-8.789062,-2.318115,15.216064,-51.828003
2021-03-27 01:57:47,1616810267.093935,5.223834,angle,1,1,1,-0.345215,-0.129395,0.854004,5.798340,-10.131836,-7.690430,-2.169800,14.985352,-52.234497
2021-03-27 01:57:47,1616810267.112638,5.242538,angle,1,1,1,-0.219238,-0.014648,0.926758,4.211426,-6.774902,-9.765625,-2.092896,14.864502,-52.712402
2021-03-27 01:57:47,1616810267.133404,5.263304,angle,1,1,1,-0.185547,-0.033203,1.017578,5.249023,-7.934570,-11.169434,-1.972046,14.650269,-53.256226
2021-03-27 01:57:47,1616810267.152105,5.282005,angle,1,1,1,-0.242676,-0.283203,1.004883,6.347656,-6.469727,-11.779785,-1.856689,14.441528,-53.794556
2021-03-27 01:57:47,1616810267.172868,5.302768,angle,1,1,1,-0.238281,-0.062500,1.057617,3.173828,-7.934570,-9.155273,-1.801758,14.210815,-54.283447
2021-03-27 01:57:47,1616810267.193740,5.323639,angle,1,1,1,-0.178711,-0.169922,1.020020,4.516602,-4.760742,-9.277344,-1.741333,14.024048,-54.772339
2021-03-27 01:57:47,1616810267.212387,5.342288,angle,1,1,1,-0.050293,0.040527,1.063477,0.244141,-3.723145,-7.080078,-1.768799,13.875732,-55.151367
2021-03-27 01:57:47,1616810267.233138,5.363037,angle,1,1,1,-0.093262,0.006836,1.108398,1.892090,-2.014160,-8.056641,-1.790771,13.798828,-55.568848
2021-03-27 01:57:47,1616810267.251818,5.381717,angle,1,1,1,-0.213379,-0.078125,1.055176,1.403809,-2.624512,-6.652832,-1.812744,13.771362,-55.887451
2021-03-27 01:57:47,1616810267.272582,5.402482,angle,1,1,1,-0.222656,-0.072266,1.167480,1.220703,0.183105,-6.225586,-1.922607,13.831787,-56.222534
2021-03-27 01:57:47,1616810267.293350,5.423249,angle,1,1,1,-0.131348,-0.006348,1.004883,-2.197266,1.037598,-5.737305,-1.999512,13.969116,-56.568604
2021-03-27 01:57:47,1616810267.312055,5.441954,angle,1,1,1,-0.132812,-0.278320,1.139648,0.549316,3.845215,-8.483887,-2.158813,14.122925,-56.936646
2021-03-27 01:57:47,1616810267.332820,5.462720,angle,1,1,1,-0.230469,0.079590,1.074707,-6.103516,5.187988,-7.385254,-2.362061,14.309692,-57.304688
2021-03-27 01:57:47,1616810267.353586,5.483486,angle,1,1,1,-0.209961,-0.166992,1.110352,-2.075195,6.530762,-9.399414,-2.581787,14.529419,-57.683716
2021-03-27 01:57:47,1616810267.372285,5.502184,angle,1,1,1,-0.029297,0.261719,1.101562,-8.422852,5.615234,-6.408691,-2.889404,14.782104,-58.024292
2021-03-27 01:57:47,1616810267.393048,5.522947,angle,1,1,1,-0.087891,-0.016113,1.042969,-2.990723,6.225586,-9.582520,-3.120117,15.040283,-58.469238
2021-03-27 01:57:47,1616810267.411753,5.541652,angle,1,1,1,-0.127930,0.031250,1.201660,-6.896973,4.638672,-9.399414,-3.455200,15.287476,-58.793335
2021-03-27 01:57:47,1616810267.432518,5.562417,angle,1,1,1,-0.080566,0.224609,1.002930,-7.629395,3.356934,-7.202148,-3.740845,15.518188,-59.210815
2021-03-27 01:57:47,1616810267.453283,5.583182,angle,1,1,1,-0.043945,-0.164062,1.114746,-4.150391,2.014160,-9.338379,-4.059448,15.611572,-59.551392
2021-03-27 01:57:47,1616810267.472006,5.601905,angle,1,1,1,-0.068848,0.186035,0.998047,-8.422852,0.244141,-7.202148,-4.394531,15.628052,-59.886475
2021-03-27 01:57:47,1616810267.492785,5.622683,angle,1,1,1,0.118164,-0.044434,0.919922,-5.737305,-1.708984,-7.385254,-4.713135,15.540161,-60.172119
2021-03-27 01:57:47,1616810267.511485,5.641382,angle,1,1,1,0.112793,0.170898,1.003418,-9.826660,2.014160,-4.516602,-5.048218,15.501709,-60.320435
2021-03-27 01:57:47,1616810267.532265,5.662164,angle,1,1,1,-0.075684,-0.050293,1.002930,-5.432129,1.831055,-6.347656,-5.306396,15.474243,-60.529175
2021-03-27 01:57:47,1616810267.553034,5.682933,angle,1,1,1,-0.203125,0.002441,1.034180,-7.385254,0.305176,-3.967285,-5.603027,15.507202,-60.617065
2021-03-27 01:57:47,1616810267.571734,5.701634,angle,1,1,1,-0.210938,0.009277,0.941406,-3.601074,4.150391,-2.502441,-5.828247,15.628052,-60.781860
2021-03-27 01:57:47,1616810267.592499,5.722398,angle,1,1,1,-0.205078,-0.010742,0.903320,-5.126953,3.723145,-5.737305,-5.960083,15.809326,-60.924683
2021-03-27 01:57:47,1616810267.611197,5.741096,angle,1,1,1,-0.194824,-0.207031,0.939453,0.549316,7.446289,-7.385254,-6.031494,16.001587,-61.155396
2021-03-27 01:57:47,1616810267.631967,5.761866,angle,1,1,1,-0.057129,0.188965,0.978516,-3.845215,4.455566,-4.882812,-6.097412,16.171875,-61.314697
2021-03-27 01:57:47,1616810267.652731,5.782631,angle,1,1,1,-0.009277,0.023438,0.938965,-0.122070,5.798340,-5.371094,-6.124878,16.314697,-61.539917
2021-03-27 01:57:47,1616810267.671432,5.801331,angle,1,1,1,-0.054688,0.127930,1.123047,-2.807617,1.464844,-6.103516,-6.179810,16.424561,-61.710205
2021-03-27 01:57:47,1616810267.692197,5.822097,angle,1,1,1,-0.135742,0.000488,0.951172,2.197266,1.464844,-5.493164,-6.190796,16.517944,-61.913452
2021-03-27 01:57:47,1616810267.712962,5.842861,angle,1,1,1,-0.079590,0.062988,0.930176,-2.014160,0.305176,-5.249023,-6.245728,16.589355,-62.061768
2021-03-27 01:57:47,1616810267.731666,5.861565,angle,1,1,1,-0.161621,-0.066895,0.782227,0.366211,3.540039,-5.493164,-6.229248,16.666260,-62.303467
2021-03-27 01:57:47,1616810267.752433,5.882332,angle,1,1,1,-0.201660,-0.175293,0.998047,-0.915527,2.441406,-7.812500,-6.245728,16.693726,-62.479248
2021-03-27 01:57:47,1616810267.773350,5.903249,angle,1,1,1,-0.023438,0.091797,0.719727,-0.305176,4.943848,-4.150391,-6.185303,16.743164,-62.677002
2021-03-27 01:57:47,1616810267.792043,5.921942,angle,1,1,1,0.098633,0.053711,1.084961,0.244141,4.455566,-8.117676,-6.174316,16.726685,-62.874756
2021-03-27 01:57:47,1616810267.812811,5.942710,angle,1,1,1,-0.133301,0.100586,1.046387,0.183105,0.305176,-4.516602,-6.075439,16.688232,-63.050537
2021-03-27 01:57:47,1616810267.833577,5.963477,angle,1,1,1,-0.141113,0.112305,1.176270,1.953125,-4.699707,-6.042480,-6.042480,16.545410,-63.237305
2021-03-27 01:57:47,1616810267.852278,5.982177,angle,1,1,1,-0.062012,0.177734,0.988770,0.183105,-6.347656,-4.516602,-6.004028,16.391602,-63.407593
2021-03-27 01:57:47,1616810267.873072,6.002971,angle,1,1,1,-0.149414,-0.099121,0.944336,-0.061035,-3.784180,-5.798340,-5.987549,16.215820,-63.638306
2021-03-27 01:57:47,1616810267.891778,6.021677,angle,1,1,1,-0.258789,-0.109375,1.016602,-0.488281,-3.906250,-9.582520,-6.015015,16.012573,-63.852539
2021-03-27 01:57:47,1616810267.912542,6.042442,angle,1,1,1,-0.204102,-0.003418,0.904297,-2.868652,-1.770020,-3.479004,-6.031494,15.820312,-64.011841
2021-03-27 01:57:47,1616810267.933315,6.063210,angle,1,1,1,-0.262207,-0.029297,1.085449,0.000000,-1.159668,-7.080078,-6.075439,15.617065,-64.253540
2021-03-27 01:57:47,1616810267.952027,6.081926,angle,1,1,1,-0.053711,0.031250,0.812988,-1.708984,-1.159668,-4.211426,-6.064453,15.485229,-64.478760
2021-03-27 01:57:47,1616810267.972790,6.102690,angle,1,1,1,0.014648,0.152832,1.120605,1.342773,-1.464844,-8.483887,-6.058960,15.331421,-64.802856
2021-03-27 01:57:47,1616810267.991480,6.121379,angle,1,1,1,-0.082031,0.013672,1.027344,-0.732422,-5.126953,-3.967285,-6.042480,15.199585,-65.011597
2021-03-27 01:57:48,1616810268.012244,6.142144,angle,1,1,1,-0.095215,0.002441,1.065918,1.037598,-4.333496,-4.638672,-6.064453,15.067749,-65.253296
2021-03-27 01:57:48,1616810268.033055,6.162952,angle,1,1,1,-0.094727,0.118164,0.894531,-0.732422,-4.699707,-4.150391,-6.042480,14.930420,-65.467529
2021-03-27 01:57:48,1616810268.051755,6.181654,angle,1,1,1,-0.146484,-0.207520,0.946777,1.464844,-4.394531,-6.347656,-6.031494,14.732666,-65.659790
2021-03-27 01:57:48,1616810268.072520,6.202420,angle,1,1,1,-0.180664,0.033203,0.920410,-0.793457,-3.723145,-4.272461,-6.026001,14.534912,-65.868530
2021-03-27 01:57:48,1616810268.093287,6.223186,angle,1,1,1,-0.141113,-0.150879,0.950684,2.563477,-1.831055,-5.615234,-5.960083,14.348145,-66.093750
2021-03-27 01:57:48,1616810268.111984,6.241883,angle,1,1,1,-0.004395,0.065430,0.920410,0.854492,-3.540039,-3.601074,-5.921631,14.172363,-66.286011
2021-03-27 01:57:48,1616810268.132749,6.262649,angle,1,1,1,-0.051270,-0.044434,1.062988,3.173828,-2.441406,-6.103516,-5.806274,14.018555,-66.527710
2021-03-27 01:57:48,1616810268.151449,6.281349,angle,1,1,1,-0.132324,0.004395,0.984863,2.441406,-2.807617,-4.760742,-5.696411,13.930664,-66.714478
2021-03-27 01:57:48,1616810268.172214,6.302113,angle,1,1,1,-0.114746,-0.084961,1.099609,4.089355,-2.197266,-3.845215,-5.592041,13.875732,-66.939697
2021-03-27 01:57:48,1616810268.192978,6.322877,angle,1,1,1,-0.071289,-0.064941,0.976562,0.915527,-2.319336,-2.380371,-5.537109,13.820801,-67.093506
2021-03-27 01:57:48,1616810268.211677,6.341576,angle,1,1,1,-0.068359,-0.100586,0.940430,1.159668,1.831055,-1.281738,-5.526123,13.793335,-67.258301
2021-03-27 01:57:48,1616810268.232439,6.362339,angle,1,1,1,-0.178223,-0.104980,1.029785,-1.770020,0.732422,-2.258301,-5.586548,13.765869,-67.390137
2021-03-27 01:57:48,1616810268.251147,6.381046,angle,1,1,1,-0.126465,-0.134277,0.875977,-0.305176,0.793457,-0.244141,-5.603027,13.765869,-67.510986
2021-03-27 01:57:48,1616810268.271910,6.401810,angle,1,1,1,-0.006836,0.021973,1.122559,-2.990723,0.000000,-2.197266,-5.718384,13.710938,-67.664795
2021-03-27 01:57:48,1616810268.292676,6.422576,angle,1,1,1,-0.175293,-0.076172,0.955566,-2.563477,-2.502441,-0.610352,-5.811768,13.656006,-67.708740
2021-03-27 01:57:48,1616810268.311366,6.441266,angle,1,1,1,-0.204102,0.014160,0.983398,-0.732422,-1.831055,0.061035,-5.927124,13.595581,-67.824097
2021-03-27 01:57:48,1616810268.332132,6.462031,angle,1,1,1,-0.195801,-0.042969,0.897949,-2.014160,-3.906250,-1.281738,-5.993042,13.518677,-67.895508
2021-03-27 01:57:48,1616810268.350878,6.480777,angle,1,1,1,-0.182129,-0.066406,0.895508,0.244141,-1.403809,0.732422,-6.053467,13.452759,-67.961426
2021-03-27 01:57:48,1616810268.371644,6.501544,angle,1,1,1,-0.257324,-0.069336,1.007812,-1.586914,-2.380371,-1.159668,-6.119385,13.348389,-68.032837
2021-03-27 01:57:48,1616810268.392409,6.522309,angle,1,1,1,-0.175293,-0.159180,0.831543,0.549316,-2.624512,0.061035,-6.119385,13.276978,-68.065796
2021-03-27 01:57:48,1616810268.411111,6.541010,angle,1,1,1,-0.111328,-0.036621,0.973633,0.549316,-2.868652,-1.647949,-6.102905,13.150635,-68.170166
2021-03-27 01:57:48,1616810268.431876,6.561776,angle,1,1,1,-0.233398,-0.064453,1.021973,2.380371,-6.042480,-0.610352,-6.004028,13.035278,-68.186646
2021-03-27 01:57:48,1616810268.452643,6.582541,angle,1,1,1,-0.191895,0.080566,0.941895,4.150391,-5.554199,1.647949,-5.855713,12.925415,-68.258057
2021-03-27 01:57:48,1616810268.471348,6.601247,angle,1,1,1,-0.120605,-0.145020,1.029785,4.699707,-4.943848,-0.976562,-5.690918,12.804565,-68.285522
2021-03-27 01:57:48,1616810268.492113,6.622013,angle,1,1,1,-0.173340,-0.025391,0.923828,4.211426,-2.441406,3.723145,-5.531616,12.722168,-68.236084
2021-03-27 01:57:48,1616810268.510800,6.640700,angle,1,1,1,-0.233887,-0.054688,1.039062,3.662109,-2.197266,3.173828,-5.388794,12.645264,-68.192139
2021-03-27 01:57:48,1616810268.531563,6.661463,angle,1,1,1,-0.191895,-0.110840,1.003418,5.920410,-1.098633,3.784180,-5.180054,12.623291,-68.115234
2021-03-27 01:57:48,1616810268.552328,6.682227,angle,1,1,1,-0.087402,0.124023,1.108887,3.234863,-1.586914,4.821777,-5.004272,12.590332,-68.016357
2021-03-27 01:57:48,1616810268.571049,6.700948,angle,1,1,1,-0.132324,0.004883,0.989746,5.798340,-1.525879,5.310059,-4.746094,12.628784,-67.868042
2021-03-27 01:57:48,1616810268.591841,6.721740,angle,1,1,1,-0.266113,-0.028809,1.236816,6.225586,-0.976562,4.760742,-4.570312,12.667236,-67.741699
2021-03-27 01:57:48,1616810268.610539,6.740438,angle,1,1,1,-0.225586,0.072754,1.052246,1.770020,-0.366211,6.774902,-4.411011,12.771606,-67.554932
2021-03-27 01:57:48,1616810268.631303,6.761202,angle,1,1,1,-0.168945,-0.188477,1.035156,4.760742,5.004883,4.943848,-4.262695,12.947388,-67.395630
2021-03-27 01:57:48,1616810268.652065,6.781965,angle,1,1,1,-0.241699,0.053711,1.134766,0.061035,5.004883,4.943848,-4.174805,13.150635,-67.186890
2021-03-27 01:57:48,1616810268.672835,6.802733,angle,1,1,1,-0.130371,-0.043457,1.060059,2.441406,7.446289,7.690430,-4.031982,13.441772,-66.967163
2021-03-27 01:57:48,1616810268.691541,6.821441,angle,1,1,1,0.111328,-0.044434,1.373047,-1.037598,7.324219,8.300781,-4.059448,13.732910,-66.670532
2021-03-27 01:57:48,1616810268.712307,6.842206,angle,1,1,1,-0.036621,0.066406,0.951172,-1.708984,6.652832,11.474609,-4.037476,14.084473,-66.275024
2021-03-27 01:57:48,1616810268.733074,6.862973,angle,1,1,1,-0.107910,-0.320312,1.144531,4.394531,7.019043,10.864258,-3.988037,14.386597,-65.917969
2021-03-27 01:57:48,1616810268.751788,6.881685,angle,1,1,1,0.020996,-0.000977,1.098145,-0.549316,7.141113,10.253906,-3.944092,14.639282,-65.462036
2021-03-27 01:57:48,1616810268.772562,6.902461,angle,1,1,1,-0.114746,-0.037598,0.823242,5.432129,8.728027,10.131836,-3.751831,14.930420,-65.093994
2021-03-27 01:57:48,1616810268.791250,6.921149,angle,1,1,1,-0.275391,-0.039062,1.141113,4.638672,8.483887,7.202148,-3.587036,15.238037,-64.742432
2021-03-27 01:57:48,1616810268.812013,6.941912,angle,1,1,1,-0.144531,0.086426,0.988281,4.028320,9.826660,8.789062,-3.323364,15.584106,-64.451294
2021-03-27 01:57:48,1616810268.832777,6.962676,angle,1,1,1,-0.147949,-0.100586,1.123535,6.042480,7.263184,7.751465,-3.114624,15.908203,-64.193115
2021-03-27 01:57:48,1616810268.851466,6.981366,angle,1,1,1,-0.046387,0.092285,1.040039,0.854492,7.507324,8.544922,-2.966309,16.226807,-63.901978
2021-03-27 01:57:48,1616810268.872255,7.002153,angle,1,1,1,-0.092773,-0.015625,0.893555,0.061035,8.789062,9.765625,-2.911377,16.512451,-63.605347
2021-03-27 01:57:48,1616810268.893027,7.022926,angle,1,1,1,-0.197266,-0.342285,1.122559,-0.610352,7.446289,5.371094,-2.938843,16.721191,-63.270264
2021-03-27 01:57:48,1616810268.911728,7.041628,angle,1,1,1,-0.047363,0.116699,0.865234,-4.455566,5.187988,8.850098,-2.982788,16.896973,-62.951660
2021-03-27 01:57:48,1616810268.932501,7.062398,angle,1,1,1,-0.004395,-0.188965,0.992676,-0.671387,5.004883,4.882812,-3.048706,16.995850,-62.709961
2021-03-27 01:57:48,1616810268.951241,7.081140,angle,1,1,1,0.039062,0.065918,0.963867,-3.723145,2.197266,5.615234,-3.098145,17.039795,-62.490234
2021-03-27 01:57:48,1616810268.972008,7.101907,angle,1,1,1,-0.038574,-0.062988,0.959961,0.488281,-0.244141,4.272461,-3.103638,17.039795,-62.325439
2021-03-27 01:57:48,1616810268.992773,7.122673,angle,1,1,1,-0.032227,-0.035156,0.999512,-0.976562,-1.831055,4.760742,-3.158569,16.984863,-62.127686
2021-03-27 01:57:49,1616810269.011473,7.141372,angle,1,1,1,-0.022949,-0.004395,0.901367,-1.708984,-3.356934,5.676270,-3.180542,16.924438,-61.924438
2021-03-27 01:57:49,1616810269.032239,7.162138,angle,1,1,1,-0.090332,-0.183105,0.934082,-0.488281,0.366211,6.164551,-3.229980,16.836548,-61.671753
2021-03-27 01:57:49,1616810269.050926,7.180826,angle,1,1,1,-0.067871,-0.004883,0.870605,-1.770020,0.732422,7.019043,-3.273926,16.743164,-61.391602
2021-03-27 01:57:49,1616810269.071693,7.201592,angle,1,1,1,0.011719,-0.122559,0.867188,-0.488281,2.685547,6.958008,-3.306885,16.682739,-61.094971
2021-03-27 01:57:49,1616810269.092463,7.222361,angle,1,1,1,0.057617,0.014160,1.062012,-1.647949,-0.061035,6.103516,-3.328857,16.589355,-60.814819
2021-03-27 01:57:49,1616810269.111157,7.241057,angle,1,1,1,-0.006836,-0.048340,0.962402,-0.732422,-2.929688,7.446289,-3.339844,16.446533,-60.490723
2021-03-27 01:57:49,1616810269.131961,7.261860,angle,1,1,1,-0.063477,0.000488,0.990234,-0.915527,-4.211426,8.300781,-3.389282,16.259766,-60.194092
2021-03-27 01:57:49,1616810269.150661,7.280560,angle,1,1,1,-0.145020,-0.272461,0.965332,0.549316,-6.042480,4.943848,-3.427734,16.001587,-59.886475
2021-03-27 01:57:49,1616810269.171429,7.301329,angle,1,1,1,-0.268066,0.059082,0.843262,-1.098633,-4.333496,7.202148,-3.433228,15.754395,-59.606323
2021-03-27 01:57:49,1616810269.192200,7.322098,angle,1,1,1,-0.021973,-0.117188,0.858887,2.136230,-2.441406,6.286621,-3.411255,15.512695,-59.353638
2021-03-27 01:57:49,1616810269.210904,7.340803,angle,1,1,1,0.022949,-0.046387,1.118164,-1.159668,-2.868652,5.432129,-3.394775,15.265503,-59.122925
2021-03-27 01:57:49,1616810269.231705,7.361605,angle,1,1,1,-0.098633,-0.021973,1.092285,1.708984,-5.249023,5.615234,-3.323364,15.018311,-58.897705
2021-03-27 01:57:49,1616810269.250451,7.380350,angle,1,1,1,-0.054688,0.095215,1.075195,2.441406,-7.263184,7.690430,-3.251953,14.782104,-58.623047
2021-03-27 01:57:49,1616810269.271222,7.401121,angle,1,1,1,-0.041504,0.073242,0.985352,2.807617,-7.080078,6.774902,-3.153076,14.567871,-58.381348
2021-03-27 01:57:49,1616810269.291991,7.421890,angle,1,1,1,-0.170898,-0.193359,0.909180,4.272461,-4.638672,5.615234,-3.043213,14.392090,-58.128662
2021-03-27 01:57:49,1616810269.310693,7.440593,angle,1,1,1,-0.246582,-0.047363,0.909180,2.197266,-2.258301,6.164551,-2.960815,14.238281,-57.892456
2021-03-27 01:57:49,1616810269.331462,7.461361,angle,1,1,1,0.059570,-0.149414,0.986328,1.586914,0.793457,4.455566,-2.911377,14.111938,-57.683716
2021-03-27 01:57:49,1616810269.352228,7.482128,angle,1,1,1,-0.050293,0.016602,1.062988,0.549316,-1.770020,4.699707,-2.856445,13.974609,-57.474976
2021-03-27 01:57:49,1616810269.370917,7.500816,angle,1,1,1,-0.051270,-0.020508,1.048828,2.319336,-3.662109,4.821777,-2.796021,13.831787,-57.244263
2021-03-27 01:57:49,1616810269.391686,7.521585,angle,1,1,1,-0.037598,0.103027,1.030273,2.258301,-4.760742,6.958008,-2.735596,13.688965,-56.997070
2021-03-27 01:57:49,1616810269.410387,7.540287,angle,1,1,1,-0.083984,0.070312,0.935059,2.014160,-6.286621,5.249023,-2.636719,13.524170,-56.782837
2021-03-27 01:57:49,1616810269.431156,7.561056,angle,1,1,1,-0.137207,-0.104004,0.962891,3.295898,-4.516602,5.981445,-2.548828,13.359375,-56.541138
2021-03-27 01:57:49,1616810269.451922,7.581822,angle,1,1,1,-0.223633,0.002441,0.944336,1.464844,-3.967285,5.187988,-2.460938,13.172607,-56.348877
2021-03-27 01:57:49,1616810269.470623,7.600523,angle,1,1,1,-0.091309,-0.086426,0.945312,2.136230,-3.967285,5.371094,-2.373047,12.963867,-56.140137
2021-03-27 01:57:49,1616810269.491391,7.621291,angle,1,1,1,-0.053711,-0.002441,1.033203,2.319336,-3.906250,2.746582,-2.307129,12.722168,-56.008301
2021-03-27 01:57:49,1616810269.510091,7.639991,angle,1,1,1,-0.184082,0.073730,1.005859,1.892090,-8.422852,2.319336,-2.208252,12.458496,-55.854492
2021-03-27 01:57:49,1616810269.530951,7.660850,angle,1,1,1,-0.155273,0.051758,1.114746,4.028320,-6.835938,1.464844,-2.114868,12.233276,-55.821533
2021-03-27 01:57:49,1616810269.551728,7.681624,angle,1,1,1,-0.066406,0.079102,0.997070,2.380371,-6.164551,-2.075195,-2.037964,12.030029,-55.832520
2021-03-27 01:57:49,1616810269.572503,7.702401,angle,1,1,1,-0.146484,-0.168945,1.011230,2.380371,-3.234863,-7.202148,-1.972046,11.892700,-55.942383
2021-03-27 01:57:49,1616810269.591204,7.721104,angle,1,1,1,-0.161621,-0.017578,1.097656,1.098633,-3.112793,-1.647949,-1.955566,11.760864,-56.008301
2021-03-27 01:57:49,1616810269.611972,7.741872,angle,1,1,1,-0.090820,-0.172852,1.014160,1.281738,0.915527,0.244141,-1.933594,11.744385,-56.013794
2021-03-27 01:57:49,1616810269.632740,7.762640,angle,1,1,1,0.003906,0.057129,1.039551,-2.075195,-0.122070,0.976562,-1.988525,11.744385,-56.019287
2021-03-27 01:57:49,1616810269.651520,7.781417,angle,1,1,1,-0.126953,-0.129883,0.970215,1.159668,0.732422,-0.244141,-1.977539,11.810303,-56.002808
2021-03-27 01:57:49,1616810269.672296,7.802195,angle,1,1,1,-0.170410,-0.014160,1.134277,1.403809,-0.061035,0.671387,-2.010498,11.865234,-55.986328
2021-03-27 01:57:49,1616810269.691034,7.820933,angle,1,1,1,-0.185547,0.088379,0.836914,2.075195,0.122070,1.342773,-1.922607,11.975098,-56.008301
2021-03-27 01:57:49,1616810269.711833,7.841731,angle,1,1,1,-0.153320,-0.229004,1.025391,4.211426,3.417969,-1.281738,-1.878662,12.068481,-56.090698
2021-03-27 01:57:49,1616810269.732601,7.862500,angle,1,1,1,-0.245605,-0.070312,0.979004,0.915527,1.953125,-1.464844,-1.840210,12.183838,-56.173096
2021-03-27 01:57:49,1616810269.751304,7.881203,angle,1,1,1,-0.261719,-0.150391,1.037598,3.601074,4.455566,-0.488281,-1.790771,12.354126,-56.299438
2021-03-27 01:57:49,1616810269.772072,7.901970,angle,1,1,1,-0.095215,-0.036133,1.136230,0.000000,1.953125,-2.868652,-1.834717,12.496948,-56.447754
2021-03-27 01:57:49,1616810269.790780,7.920678,angle,1,1,1,-0.229004,-0.018066,0.901367,1.464844,1.953125,-1.586914,-1.812744,12.689209,-56.601562
2021-03-27 01:57:49,1616810269.811552,7.941450,angle,1,1,1,-0.291016,-0.074219,1.150879,2.075195,2.502441,-2.319336,-1.889648,12.870483,-56.771851
2021-03-27 01:57:49,1616810269.832324,7.962223,angle,1,1,1,-0.091797,0.033691,0.887695,-1.953125,2.685547,-2.319336,-1.933594,13.090210,-56.914673
2021-03-27 01:57:49,1616810269.851023,7.980922,angle,1,1,1,-0.171875,-0.227539,0.947266,1.647949,6.042480,-3.295898,-1.988525,13.293457,-57.106934
2021-03-27 01:57:49,1616810269.871844,8.001743,angle,1,1,1,-0.246582,-0.041016,1.172363,-3.173828,2.685547,-2.014160,-2.125854,13.452759,-57.238770
2021-03-27 01:57:49,1616810269.890543,8.020439,angle,1,1,1,-0.140625,0.000000,0.938965,-1.708984,3.234863,-0.915527,-2.202759,13.650513,-57.370605
2021-03-27 01:57:49,1616810269.911321,8.041220,angle,1,1,1,-0.091309,-0.061523,1.171387,-2.929688,2.990723,-3.723145,-2.395020,13.798828,-57.518921
2021-03-27 01:57:49,1616810269.932074,8.061972,angle,1,1,1,-0.368164,0.041504,1.111328,-4.882812,-0.305176,-2.197266,-2.587280,13.947144,-57.617798
2021-03-27 01:57:49,1616810269.950779,8.080679,angle,1,1,1,-0.342285,0.016113,1.022461,-4.089355,1.464844,-1.892090,-2.828979,14.084473,-57.815552
2021-03-27 01:57:49,1616810269.971545,8.101444,angle,1,1,1,-0.247559,-0.248047,1.118164,-6.164551,2.624512,-7.568359,-3.131104,14.216309,-58.062744
2021-03-27 01:57:49,1616810269.990241,8.120141,angle,1,1,1,-0.363770,0.027344,0.989746,-7.690430,3.479004,-5.371094,-3.466187,14.381104,-58.353882
2021-03-27 01:57:50,1616810270.011007,8.140906,angle,1,1,1,-0.240723,-0.067871,1.234863,-8.422852,3.723145,-9.399414,-3.878174,14.523926,-58.738403
2021-03-27 01:57:50,1616810270.031812,8.161708,angle,1,1,1,-0.018066,-0.000977,1.066406,-10.803223,3.173828,-9.826660,-4.328613,14.683228,-59.133911
2021-03-27 01:57:50,1616810270.050526,8.180426,angle,1,1,1,-0.111328,-0.066895,1.143555,-8.483887,1.342773,-11.657715,-4.735107,14.826050,-59.606323
2021-03-27 01:57:50,1616810270.071295,8.201194,angle,1,1,1,-0.132812,-0.007812,1.253418,-10.681152,-0.854492,-9.399414,-5.234985,14.908447,-59.968872
2021-03-27 01:57:50,1616810270.092059,8.221958,angle,1,1,1,-0.011230,0.000000,0.974609,-10.070801,-1.647949,-7.873535,-5.635986,14.908447,-60.380859
2021-03-27 01:57:50,1616810270.110755,8.240654,angle,1,1,1,-0.020020,-0.357910,1.034180,-6.042480,-1.464844,-10.620117,-6.036987,14.804077,-60.710449
2021-03-27 01:57:50,1616810270.131522,8.261421,angle,1,1,1,-0.010254,0.171387,0.816895,-7.324219,-1.220703,-2.868652,-6.328125,14.688721,-60.930176
2021-03-27 01:57:50,1616810270.150225,8.280125,angle,1,1,1,0.179688,-0.134766,1.072266,-5.432129,2.197266,-3.112793,-6.580811,14.611816,-61.051025
2021-03-27 01:57:50,1616810270.170990,8.300890,angle,1,1,1,0.006348,0.072266,0.963867,-6.408691,-0.061035,-0.305176,-6.767578,14.562378,-61.040039
2021-03-27 01:57:50,1616810270.191758,8.321658,angle,1,1,1,-0.120117,0.030273,1.145508,-2.624512,0.732422,-2.136230,-6.915894,14.573364,-61.018066
2021-03-27 01:57:50,1616810270.210458,8.340357,angle,1,1,1,-0.098633,0.116699,0.970703,-0.854492,0.122070,-0.671387,-6.948853,14.628296,-60.990601
2021-03-27 01:57:50,1616810270.231228,8.361127,angle,1,1,1,-0.024414,0.015137,0.949707,-1.892090,2.136230,-2.136230,-7.009277,14.683228,-60.996094
2021-03-27 01:57:50,1616810270.249985,8.379885,angle,1,1,1,-0.062988,0.018066,0.906738,-1.708984,2.990723,-2.319336,-7.031250,14.765625,-61.056519
2021-03-27 01:57:50,1616810270.270763,8.400662,angle,1,1,1,-0.145020,-0.172852,1.038086,-3.967285,4.760742,-4.577637,-7.163086,14.848022,-61.056519
2021-03-27 01:57:50,1616810270.291533,8.421432,angle,1,1,1,-0.092285,0.001465,0.855469,-3.540039,5.920410,-1.403809,-7.223511,14.941406,-61.051025
2021-03-27 01:57:50,1616810270.310223,8.440122,angle,1,1,1,0.067871,0.091309,1.046387,-5.615234,3.723145,-2.014160,-7.377319,15.007324,-61.029053
2021-03-27 01:57:50,1616810270.330987,8.460887,angle,1,1,1,0.079102,0.105469,0.916992,-4.516602,2.868652,-2.136230,-7.448730,15.040283,-61.051025
2021-03-27 01:57:50,1616810270.349700,8.479600,angle,1,1,1,-0.027832,0.024414,1.095703,-2.563477,-1.098633,-4.699707,-7.547607,14.990845,-61.078491
2021-03-27 01:57:50,1616810270.370468,8.500367,angle,1,1,1,0.046875,0.205078,0.970703,-3.051758,-4.455566,-1.220703,-7.602539,14.908447,-61.067505
2021-03-27 01:57:50,1616810270.391235,8.521134,angle,1,1,1,0.052246,-0.039062,0.940430,-1.281738,-2.441406,-1.586914,-7.684937,14.787598,-61.029053
2021-03-27 01:57:50,1616810270.412000,8.541900,angle,1,1,1,-0.078125,0.012695,0.786621,-3.784180,-1.708984,-0.366211,-7.695923,14.661255,-60.990601
2021-03-27 01:57:50,1616810270.430688,8.560588,angle,1,1,1,-0.140625,-0.303711,0.988770,0.610352,-0.305176,-2.014160,-7.723389,14.507446,-60.902710
2021-03-27 01:57:50,1616810270.451446,8.581345,angle,1,1,1,-0.101562,0.027832,0.814941,-0.793457,0.854492,2.258301,-7.657471,14.397583,-60.781860
2021-03-27 01:57:50,1616810270.472218,8.602118,angle,1,1,1,-0.056152,-0.077148,0.886230,1.586914,0.793457,2.136230,-7.575073,14.287720,-60.628052
2021-03-27 01:57:50,1616810270.490918,8.620817,angle,1,1,1,-0.031250,-0.149414,0.907715,4.760742,2.624512,3.112793,-7.393799,14.238281,-60.441284
2021-03-27 01:57:50,1616810270.511685,8.641585,angle,1,1,1,0.041016,0.137207,0.834473,2.746582,2.502441,5.432129,-7.157593,14.243774,-60.232544
2021-03-27 01:57:50,1616810270.530384,8.660284,angle,1,1,1,0.064453,-0.140625,0.990234,7.995605,3.845215,2.258301,-6.866455,14.260254,-60.051270
2021-03-27 01:57:50,1616810270.551151,8.681050,angle,1,1,1,-0.026367,0.065430,0.930176,5.554199,0.549316,5.432129,-6.503906,14.282227,-59.837036
2021-03-27 01:57:50,1616810270.571916,8.701816,angle,1,1,1,-0.164062,-0.126465,1.040039,9.399414,0.122070,4.211426,-6.179810,14.265747,-59.628296
2021-03-27 01:57:50,1616810270.590617,8.720516,angle,1,1,1,-0.148438,0.136230,0.898438,3.845215,-1.647949,7.812500,-5.872192,14.249268,-59.342651
2021-03-27 01:57:50,1616810270.611371,8.741271,angle,1,1,1,-0.156250,-0.155762,0.990723,6.042480,0.183105,5.737305,-5.657959,14.188843,-59.078979
2021-03-27 01:57:50,1616810270.632137,8.762037,angle,1,1,1,-0.164062,0.016113,0.958984,2.319336,-1.708984,5.310059,-5.449219,14.095459,-58.820801
2021-03-27 01:57:50,1616810270.650835,8.780734,angle,1,1,1,-0.220703,-0.133789,1.045410,2.319336,-1.281738,5.310059,-5.311890,13.963623,-58.579102
2021-03-27 01:57:50,1616810270.671602,8.801502,angle,1,1,1,-0.164062,0.064453,1.038574,0.061035,-3.662109,3.967285,-5.229492,13.826294,-58.414307
2021-03-27 01:57:50,1616810270.690291,8.820191,angle,1,1,1,-0.182617,0.014648,1.044922,-0.427246,-4.333496,2.075195,-5.169067,13.677979,-58.293457
2021-03-27 01:57:50,1616810270.711084,8.840983,angle,1,1,1,-0.251953,0.064941,1.104492,-0.427246,-7.690430,2.990723,-5.185547,13.496704,-58.178101
2021-03-27 01:57:50,1616810270.731852,8.861752,angle,1,1,1,-0.064453,0.203613,0.967285,-4.211426,-9.704590,1.831055,-5.202026,13.276978,-58.150635
2021-03-27 01:57:50,1616810270.750553,8.880452,angle,1,1,1,-0.128418,-0.235352,1.062012,-0.610352,-8.728027,-2.380371,-5.311890,12.974854,-58.150635
2021-03-27 01:57:50,1616810270.771323,8.901222,angle,1,1,1,-0.284180,0.084473,0.917969,-4.150391,-10.314941,1.220703,-5.372314,12.650757,-58.156128
2021-03-27 01:57:50,1616810270.790024,8.919924,angle,1,1,1,-0.218750,-0.248535,0.976074,-1.647949,-9.094238,-0.366211,-5.515137,12.260742,-58.134155
2021-03-27 01:57:50,1616810270.810828,8.940727,angle,1,1,1,0.070801,0.108398,0.906738,-6.591797,-9.338379,1.647949,-5.630493,11.892700,-58.101196
2021-03-27 01:57:50,1616810270.831600,8.961500,angle,1,1,1,-0.032715,-0.328613,1.114258,0.305176,-7.629395,-2.502441,-5.712891,11.524658,-58.084717
2021-03-27 01:57:50,1616810270.850300,8.980199,angle,1,1,1,-0.151367,0.012695,1.014160,-3.051758,-10.864258,2.258301,-5.778809,11.217041,-57.941895
2021-03-27 01:57:50,1616810270.871117,9.001016,angle,1,1,1,-0.054688,-0.050293,0.948242,1.708984,-7.690430,3.662109,-5.806274,10.953369,-57.821045
2021-03-27 01:57:50,1616810270.889842,9.019739,angle,1,1,1,0.064453,-0.020996,0.922852,-0.427246,-6.042480,2.441406,-5.789795,10.744629,-57.634277
2021-03-27 01:57:50,1616810270.910624,9.040519,angle,1,1,1,-0.098145,-0.262207,0.894531,5.065918,-3.173828,5.187988,-5.679932,10.585327,-57.425537
2021-03-27 01:57:50,1616810270.931403,9.061303,angle,1,1,1,-0.129883,-0.076172,0.900391,3.051758,-2.929688,6.286621,-5.564575,10.464478,-57.156372
2021-03-27 01:57:50,1616810270.950091,9.079991,angle,1,1,1,-0.101562,-0.248047,1.036133,4.211426,-2.197266,6.286621,-5.421753,10.354614,-56.843262
2021-03-27 01:57:50,1616810270.970860,9.100759,angle,1,1,1,-0.087402,-0.163086,0.966309,4.882812,-1.464844,10.253906,-5.229492,10.305176,-56.480713
2021-03-27 01:57:50,1616810270.989563,9.119463,angle,1,1,1,-0.071777,-0.006836,1.116699,5.249023,-1.464844,7.080078,-5.048218,10.261230,-56.129150
2021-03-27 01:57:51,1616810271.010333,9.140232,angle,1,1,1,-0.155762,-0.092773,0.964844,4.638672,-1.586914,9.704590,-4.828491,10.283203,-55.744629
2021-03-27 01:57:51,1616810271.031113,9.161012,angle,1,1,1,-0.188965,-0.044922,1.225586,7.019043,-0.976562,7.873535,-4.652710,10.316162,-55.398560
2021-03-27 01:57:51,1616810271.049814,9.179713,angle,1,1,1,-0.211914,0.120117,0.914062,2.014160,-1.281738,10.559082,-4.487915,10.415039,-55.014038
2021-03-27 01:57:51,1616810271.070585,9.200483,angle,1,1,1,-0.166504,-0.226562,1.109375,5.737305,3.173828,9.033203,-4.356079,10.552368,-54.678955
2021-03-27 01:57:51,1616810271.091386,9.221286,angle,1,1,1,-0.198730,-0.002441,0.937500,0.488281,2.929688,9.094238,-4.279175,10.700684,-54.294434
2021-03-27 01:57:51,1616810271.110088,9.239987,angle,1,1,1,-0.243164,-0.203613,1.169434,2.380371,4.577637,9.521484,-4.196777,10.876465,-53.931885
2021-03-27 01:57:51,1616810271.130856,9.260755,angle,1,1,1,-0.041016,0.144043,1.106445,-3.051758,2.807617,9.765625,-4.235229,11.046753,-53.552856
2021-03-27 01:57:51,1616810271.149546,9.279445,angle,1,1,1,-0.083008,-0.094238,1.128418,0.488281,2.380371,9.582520,-4.229736,11.233521,-53.195801
2021-03-27 01:57:51,1616810271.170325,9.300221,angle,1,1,1,-0.025391,-0.064453,1.094727,-1.525879,1.220703,15.258789,-4.312134,11.392822,-52.712402
2021-03-27 01:57:51,1616810271.191112,9.321008,angle,1,1,1,-0.181152,0.023438,0.975586,-1.037598,1.953125,11.962891,-4.317627,11.563110,-52.322388
2021-03-27 01:57:51,1616810271.209819,9.339718,angle,1,1,1,-0.133789,-0.074219,1.123535,1.770020,2.685547,9.155273,-4.328613,11.711426,-51.888428
2021-03-27 01:57:51,1616810271.230587,9.360487,angle,1,1,1,-0.093750,0.052246,0.955566,0.793457,2.563477,9.216309,-4.229736,11.859741,-51.542358
2021-03-27 01:57:51,1616810271.249291,9.379190,angle,1,1,1,-0.001953,-0.000488,1.228027,3.906250,1.281738,7.995605,-4.130859,11.925659,-51.152344
2021-03-27 01:57:51,1616810271.270058,9.399957,angle,1,1,1,0.057129,0.070801,1.002930,3.112793,2.502441,11.291504,-3.971558,12.019043,-50.729370
2021-03-27 01:57:51,1616810271.290829,9.420727,angle,1,1,1,0.025391,-0.054199,1.287109,2.990723,1.037598,8.789062,-3.856201,12.079468,-50.267944
2021-03-27 01:57:51,1616810271.309558,9.439459,angle,1,1,1,-0.058105,0.036621,0.966309,2.136230,3.479004,10.498047,-3.702393,12.244263,-49.751587
2021-03-27 01:57:51,1616810271.330335,9.460233,angle,1,1,1,-0.046387,-0.134766,1.042480,3.540039,8.972168,8.911133,-3.619995,12.507935,-49.301147
2021-03-27 01:57:51,1616810271.351109,9.481008,angle,1,1,1,-0.025879,0.169434,0.872559,-0.549316,10.620117,11.047363,-3.515625,12.881470,-48.812256
2021-03-27 01:57:51,1616810271.369855,9.499755,angle,1,1,1,-0.017090,-0.263672,1.006836,4.760742,15.563965,7.080078,-3.416748,13.342896,-48.389282
2021-03-27 01:57:51,1616810271.390626,9.520525,angle,1,1,1,0.019531,0.100586,0.902344,0.488281,13.122559,7.080078,-3.350830,13.831787,-47.966309
2021-03-27 01:57:51,1616810271.411397,9.541296,angle,1,1,1,0.062500,-0.196289,0.994141,2.014160,13.122559,4.028320,-3.273926,14.287720,-47.592773
2021-03-27 01:57:51,1616810271.430086,9.559986,angle,1,1,1,0.155762,0.077637,1.056641,-2.441406,8.239746,8.544922,-3.279419,14.562378,-47.186279
2021-03-27 01:57:51,1616810271.450853,9.580753,angle,1,1,1,0.106445,-0.135742,0.958984,-0.244141,6.164551,4.150391,-3.246460,14.749146,-46.801758
2021-03-27 01:57:51,1616810271.471623,9.601522,angle,1,1,1,0.035156,-0.040527,1.064941,-2.929688,1.525879,5.065918,-3.334351,14.765625,-46.351318
2021-03-27 01:57:51,1616810271.490314,9.620214,angle,1,1,1,0.032227,0.085938,0.888672,-2.502441,-1.403809,5.981445,-3.383789,14.710693,-45.950317
2021-03-27 01:57:51,1616810271.511089,9.640989,angle,1,1,1,0.017578,-0.254883,0.882324,-2.380371,-0.671387,3.356934,-3.504639,14.589844,-45.505371
2021-03-27 01:57:51,1616810271.529791,9.659690,angle,1,1,1,-0.033691,0.023438,0.842285,-2.807617,-1.037598,6.286621,-3.603516,14.458008,-45.071411
2021-03-27 01:57:51,1616810271.550558,9.680457,angle,1,1,1,-0.125977,-0.151855,0.903320,-1.159668,0.061035,4.760742,-3.685913,14.342651,-44.648438
2021-03-27 01:57:51,1616810271.571329,9.701228,angle,1,1,1,-0.060547,-0.010254,0.794922,-1.953125,0.793457,6.591797,-3.751831,14.282227,-44.214478
2021-03-27 01:57:51,1616810271.590032,9.719930,angle,1,1,1,-0.045898,0.067871,0.909668,-2.441406,0.793457,5.187988,-3.834229,14.227295,-43.835449
2021-03-27 01:57:51,1616810271.610805,9.740704,angle,1,1,1,-0.184082,-0.019531,0.920898,0.305176,-1.708984,3.906250,-3.828735,14.188843,-43.505859
2021-03-27 01:57:51,1616810271.631564,9.761463,angle,1,1,1,-0.179688,0.043945,0.968750,0.549316,-3.784180,4.089355,-3.834229,14.084473,-43.258667
2021-03-27 01:57:51,1616810271.650266,9.780166,angle,1,1,1,-0.125488,0.070312,0.892090,-0.854492,-5.432129,2.380371,-3.839722,13.914185,-43.044434
2021-03-27 01:57:51,1616810271.671031,9.800930,angle,1,1,1,-0.264648,-0.185059,0.889160,1.647949,-5.615234,0.732422,-3.834229,13.683472,-42.857666
2021-03-27 01:57:51,1616810271.689767,9.819666,angle,1,1,1,-0.236328,0.108887,0.988770,-1.220703,-7.934570,0.305176,-3.872681,13.375854,-42.720337
2021-03-27 01:57:51,1616810271.710533,9.840432,angle,1,1,1,-0.064941,-0.125977,0.880859,1.708984,-6.958008,-1.892090,-3.834229,13.057251,-42.720337
2021-03-27 01:57:51,1616810271.731301,9.861200,angle,1,1,1,0.077637,0.053223,1.004395,-1.281738,-8.361816,-4.882812,-3.845215,12.694702,-42.747803
2021-03-27 01:57:51,1616810271.749989,9.879888,angle,1,1,1,-0.143066,-0.155273,1.024902,4.028320,-9.216309,-6.225586,-3.762817,12.365112,-42.885132
2021-03-27 01:57:51,1616810271.770754,9.900654,angle,1,1,1,-0.081055,0.114746,1.145508,-0.244141,-9.582520,-3.540039,-3.779297,12.046509,-42.973022
2021-03-27 01:57:51,1616810271.789456,9.919355,angle,1,1,1,-0.038574,0.017578,0.940430,2.441406,-6.774902,-4.394531,-3.718872,11.777344,-43.143311
2021-03-27 01:57:51,1616810271.810229,9.940128,angle,1,1,1,0.060059,-0.082520,1.091309,-1.647949,-6.042480,-6.530762,-3.784790,11.524658,-43.242188
2021-03-27 01:57:51,1616810271.830999,9.960899,angle,1,1,1,-0.100586,-0.230957,0.966309,1.525879,-1.586914,-5.065918,-3.790283,11.387329,-43.352051
2021-03-27 01:57:51,1616810271.849727,9.979627,angle,1,1,1,-0.116699,-0.000977,1.086426,-2.746582,-2.746582,-4.760742,-3.911133,11.228027,-43.450928
2021-03-27 01:57:51,1616810271.870522,10.000421,angle,1,1,1,-0.075195,-0.167480,1.008301,-0.244141,-0.976562,-4.760742,-3.988037,11.145630,-43.571777
2021-03-27 01:57:51,1616810271.889230,10.019127,angle,1,1,1,0.036621,-0.011230,0.994629,-2.746582,-0.244141,-2.258301,-4.114380,11.090698,-43.659668
2021-03-27 01:57:51,1616810271.910017,10.039914,angle,1,1,1,-0.042480,-0.063965,1.005371,-0.854492,0.732422,-5.737305,-4.191284,11.074219,-43.824463
2021-03-27 01:57:51,1616810271.930854,10.060749,angle,1,1,1,-0.194824,-0.086426,0.958984,0.610352,-0.122070,-4.943848,-4.235229,11.101685,-43.967285
2021-03-27 01:57:51,1616810271.949572,10.079471,angle,1,1,1,-0.238770,-0.061035,1.030762,3.784180,1.281738,-7.202148,-4.224243,11.184082,-44.230957
2021-03-27 01:57:51,1616810271.970340,10.100239,angle,1,1,1,-0.220215,0.134766,0.847656,2.868652,1.953125,-6.896973,-4.125366,11.332397,-44.516602
2021-03-27 01:57:51,1616810271.989031,10.118930,angle,1,1,1,-0.177246,-0.237793,1.050781,5.676270,5.859375,-11.291504,-4.010010,11.524658,-44.879150
2021-03-27 01:57:52,1616810272.009802,10.139701,angle,1,1,1,-0.240723,0.003906,0.944824,4.211426,6.164551,-11.047363,-3.856201,11.771851,-45.280151
2021-03-27 01:57:52,1616810272.030570,10.160470,angle,1,1,1,-0.317383,-0.151855,1.203613,5.554199,5.004883,-11.779785,-3.735352,11.997070,-45.752563
2021-03-27 01:57:52,1616810272.049273,10.179172,angle,1,1,1,-0.029785,0.104492,1.047852,1.770020,3.173828,-10.864258,-3.619995,12.211304,-46.252441
2021-03-27 01:57:52,1616810272.070042,10.199941,angle,1,1,1,-0.000977,-0.173828,1.104492,2.868652,3.417969,-16.052246,-3.592529,12.387085,-46.812744
2021-03-27 01:57:52,1616810272.090810,10.220710,angle,1,1,1,-0.181152,-0.042969,1.035645,1.403809,0.549316,-13.427734,-3.587036,12.535400,-47.329102
2021-03-27 01:57:52,1616810272.109515,10.239414,angle,1,1,1,-0.208984,-0.089844,1.022949,2.624512,2.441406,-11.901855,-3.619995,12.705688,-47.916870
2021-03-27 01:57:52,1616810272.130270,10.260170,angle,1,1,1,-0.003418,0.022949,0.877441,-0.366211,3.906250,-11.535645,-3.669434,12.903442,-48.471680
2021-03-27 01:57:52,1616810272.148974,10.278873,angle,1,1,1,-0.083008,-0.421387,0.923828,4.333496,7.324219,-14.221191,-3.674927,13.128662,-49.064941
2021-03-27 01:57:52,1616810272.169743,10.299642,angle,1,1,1,-0.203125,-0.090820,0.982422,1.586914,5.798340,-11.413574,-3.691406,13.342896,-49.630737
2021-03-27 01:57:52,1616810272.190512,10.320411,angle,1,1,1,-0.219727,-0.171875,1.080078,3.784180,5.554199,-10.314941,-3.685913,13.551636,-50.180054
2021-03-27 01:57:52,1616810272.209213,10.339113,angle,1,1,1,-0.009766,0.006836,1.014648,1.037598,4.333496,-9.277344,-3.685913,13.782349,-50.734863
2021-03-27 01:57:52,1616810272.229980,10.359880,angle,1,1,1,-0.095215,-0.211914,1.096680,3.723145,6.774902,-13.244629,-3.702393,14.024048,-51.339111
2021-03-27 01:57:52,1616810272.250748,10.380648,angle,1,1,1,-0.326172,-0.032715,1.117188,1.037598,4.272461,-10.925293,-3.707886,14.304199,-51.882935
2021-03-27 01:57:52,1616810272.271518,10.401417,angle,1,1,1,-0.393066,-0.054199,1.107910,4.150391,6.347656,-10.192871,-3.768311,14.628296,-52.448730
2021-03-27 01:57:52,1616810272.290207,10.420106,angle,1,1,1,-0.035156,0.041016,0.993652,-1.098633,6.774902,-11.840820,-3.845215,14.968872,-53.074951
2021-03-27 01:57:52,1616810272.310976,10.440875,angle,1,1,1,-0.074219,-0.277344,1.030762,2.136230,8.239746,-13.244629,-3.933105,15.254517,-53.684692
2021-03-27 01:57:52,1616810272.329680,10.459580,angle,1,1,1,-0.107910,0.003906,1.164062,-2.624512,2.014160,-10.253906,-4.075928,15.402832,-54.239502
2021-03-27 01:57:52,1616810272.350449,10.480348,angle,1,1,1,0.041504,-0.076172,1.128906,-2.197266,0.732422,-8.239746,-4.229736,15.413818,-54.739380
2021-03-27 01:57:52,1616810272.371219,10.501118,angle,1,1,1,0.087402,0.022461,1.164062,-4.455566,-1.770020,-6.958008,-4.449463,15.309448,-55.151367
2021-03-27 01:57:52,1616810272.389940,10.519835,angle,1,1,1,-0.064453,0.084961,0.998047,-5.249023,-2.380371,-2.380371,-4.674683,15.183105,-55.426025
2021-03-27 01:57:52,1616810272.410722,10.540621,angle,1,1,1,-0.061523,0.012207,1.045898,-2.990723,-0.732422,-1.464844,-4.927368,15.139160,-55.612793
2021-03-27 01:57:52,1616810272.429413,10.559312,angle,1,1,1,-0.002441,0.119141,0.793945,-2.807617,2.380371,-0.488281,-5.064697,15.210571,-55.799561
2021-03-27 01:57:52,1616810272.450182,10.580081,angle,1,1,1,-0.034668,-0.063477,0.895020,-1.708984,6.347656,-2.807617,-5.158081,15.342407,-55.931396
2021-03-27 01:57:52,1616810272.470996,10.600895,angle,1,1,1,-0.158691,-0.107422,0.821289,2.746582,8.117676,-1.770020,-5.130615,15.534668,-56.079712
2021-03-27 01:57:52,1616810272.489726,10.619625,angle,1,1,1,-0.206055,0.048828,1.064453,0.976562,7.507324,-0.488281,-5.064697,15.743408,-56.162109
2021-03-27 01:57:52,1616810272.510494,10.640393,angle,1,1,1,-0.024414,0.087402,0.885254,3.540039,8.422852,0.793457,-4.932861,15.990601,-56.260986
2021-03-27 01:57:52,1616810272.529185,10.659084,angle,1,1,1,-0.033691,0.153320,1.266113,2.075195,3.967285,0.000000,-4.822998,16.188354,-56.315918
2021-03-27 01:57:52,1616810272.549952,10.679851,angle,1,1,1,-0.136719,0.129883,0.930176,4.577637,2.502441,0.915527,-4.652710,16.397095,-56.370850
2021-03-27 01:57:52,1616810272.570719,10.700618,angle,1,1,1,-0.181641,0.056152,0.930176,1.892090,5.249023,0.732422,-4.570312,16.589355,-56.381836
2021-03-27 01:57:52,1616810272.589441,10.719340,angle,1,1,1,-0.186523,0.030273,0.866699,1.403809,6.896973,0.061035,-4.471436,16.776123,-56.425781
2021-03-27 01:57:52,1616810272.610209,10.740108,angle,1,1,1,-0.195312,-0.169922,1.038086,-0.244141,6.286621,-1.403809,-4.454956,16.880493,-56.425781
2021-03-27 01:57:52,1616810272.628920,10.758815,angle,1,1,1,-0.075684,0.108398,0.893555,-0.915527,5.554199,0.427246,-4.411011,16.946411,-56.464233
2021-03-27 01:57:52,1616810272.649701,10.779600,angle,1,1,1,-0.044922,0.054688,1.084961,-1.159668,1.770020,-0.671387,-4.405518,16.946411,-56.453247
2021-03-27 01:57:52,1616810272.670469,10.800368,angle,1,1,1,-0.059570,0.060059,0.954590,-0.427246,1.770020,0.854492,-4.361572,16.957397,-56.458740
2021-03-27 01:57:52,1616810272.689176,10.819075,angle,1,1,1,0.009277,0.109863,1.004883,-0.366211,1.098633,-0.366211,-4.317627,16.946411,-56.486206
2021-03-27 01:57:52,1616810272.709945,10.839844,angle,1,1,1,-0.075684,0.054688,0.967285,2.258301,0.183105,-0.244141,-4.196777,16.962891,-56.491699
2021-03-27 01:57:52,1616810272.730714,10.860613,angle,1,1,1,-0.188477,0.136230,1.009766,2.258301,-0.732422,1.403809,-4.075928,16.962891,-56.447754
2021-03-27 01:57:52,1616810272.749414,10.879314,angle,1,1,1,-0.224121,0.130371,0.897461,3.601074,0.000000,2.075195,-3.900146,16.973877,-56.431274
2021-03-27 01:57:52,1616810272.770180,10.900079,angle,1,1,1,-0.140137,-0.012695,0.951172,1.953125,0.549316,1.159668,-3.751831,16.957397,-56.381836
2021-03-27 01:57:52,1616810272.788872,10.918771,angle,1,1,1,-0.170898,0.002930,0.871094,2.929688,1.525879,1.770020,-3.570557,16.946411,-56.343384
2021-03-27 01:57:52,1616810272.809639,10.939539,angle,1,1,1,-0.203613,-0.010742,1.052734,1.892090,0.305176,1.403809,-3.433228,16.902466,-56.277466
2021-03-27 01:57:52,1616810272.830407,10.960307,angle,1,1,1,-0.128906,0.052734,1.010254,1.403809,-0.305176,3.173828,-3.290405,16.858521,-56.217041
2021-03-27 01:57:52,1616810272.849108,10.979007,angle,1,1,1,-0.064941,0.081543,1.047852,-0.427246,-1.220703,2.136230,-3.229980,16.798096,-56.162109
2021-03-27 01:57:52,1616810272.869868,10.999766,angle,1,1,1,-0.172852,0.077637,1.004395,0.061035,-3.479004,3.234863,-3.158569,16.726685,-56.079712
2021-03-27 01:57:52,1616810272.888733,11.018632,angle,1,1,1,-0.210938,0.088379,0.983887,0.000000,-3.417969,4.333496,-3.131104,16.644287,-55.975342
2021-03-27 01:57:52,1616810272.909538,11.039437,angle,1,1,1,-0.217285,0.151367,0.861816,-0.549316,-2.868652,3.356934,-3.070679,16.550903,-55.909424
2021-03-27 01:57:52,1616810272.930305,11.060204,angle,1,1,1,-0.238281,-0.084473,0.927246,1.403809,-3.112793,2.014160,-2.999268,16.424561,-55.832520
2021-03-27 01:57:52,1616810272.949016,11.078913,angle,1,1,1,-0.242676,0.078125,0.911133,1.220703,-3.662109,3.540039,-2.894897,16.254272,-55.739136
2021-03-27 01:57:52,1616810272.969792,11.099692,angle,1,1,1,-0.104492,0.034180,0.955566,1.831055,-5.004883,3.540039,-2.763062,16.045532,-55.651245
2021-03-27 01:57:52,1616810272.988481,11.118381,angle,1,1,1,0.047852,0.058594,1.023926,0.122070,-5.310059,2.746582,-2.658691,15.803833,-55.524902
2021-03-27 01:57:53,1616810273.009248,11.139148,angle,1,1,1,-0.199219,-0.049805,1.039062,3.417969,-7.629395,2.929688,-2.504883,15.529175,-55.415039
2021-03-27 01:57:53,1616810273.030056,11.159954,angle,1,1,1,-0.231445,0.122559,1.136230,-0.488281,-8.911133,6.103516,-2.433472,15.243530,-55.211792
2021-03-27 01:57:53,1616810273.048745,11.178645,angle,1,1,1,-0.151367,0.233887,0.883789,0.305176,-7.751465,6.713867,-2.362061,14.996338,-55.063477
2021-03-27 01:57:53,1616810273.069509,11.199409,angle,1,1,1,-0.114258,0.007812,0.987793,-1.464844,-6.652832,3.845215,-2.362061,14.760132,-54.887695
2021-03-27 01:57:53,1616810273.088209,11.218109,angle,1,1,1,-0.226074,-0.050293,0.945801,-0.732422,-5.432129,4.516602,-2.334595,14.545898,-54.733887
2021-03-27 01:57:53,1616810273.108975,11.238874,angle,1,1,1,-0.300293,0.194336,1.052734,-2.441406,-5.371094,3.417969,-2.389526,14.320679,-54.585571
2021-03-27 01:57:53,1616810273.129740,11.259640,angle,1,1,1,-0.329590,-0.039551,0.938477,-2.258301,-4.028320,4.516602,-2.395020,14.166870,-54.470215
2021-03-27 01:57:53,1616810273.148440,11.278339,angle,1,1,1,-0.060547,0.161621,1.062012,-4.577637,-2.685547,1.953125,-2.499390,14.018555,-54.387817
2021-03-27 01:57:53,1616810273.169204,11.299103,angle,1,1,1,-0.172852,0.015137,0.982910,-3.417969,-3.662109,0.915527,-2.526855,13.903198,-54.360352
2021-03-27 01:57:53,1616810273.189969,11.319869,angle,1,1,1,-0.270020,0.035156,1.074707,-2.258301,-4.760742,0.671387,-2.642212,13.793335,-54.283447
2021-03-27 01:57:53,1616810273.210735,11.340634,angle,1,1,1,-0.194824,0.215820,0.937500,-4.028320,-3.540039,1.647949,-2.691650,13.727417,-54.272461
2021-03-27 01:57:53,1616810273.229420,11.359320,angle,1,1,1,-0.156250,-0.067871,1.089355,-0.244141,-2.197266,-3.051758,-2.752075,13.683472,-54.277954
2021-03-27 01:57:53,1616810273.250186,11.380086,angle,1,1,1,-0.209961,-0.047852,0.859863,-1.953125,-1.037598,-0.305176,-2.785034,13.666992,-54.299927
2021-03-27 01:57:53,1616810273.270952,11.400851,angle,1,1,1,-0.263184,-0.018066,0.937500,-0.122070,-1.342773,-1.831055,-2.801514,13.628540,-54.354858
2021-03-27 01:57:53,1616810273.289653,11.419552,angle,1,1,1,-0.184570,-0.135742,0.954102,1.220703,-1.708984,-1.892090,-2.741089,13.590088,-54.426270
2021-03-27 01:57:53,1616810273.310418,11.440317,angle,1,1,1,-0.091309,0.037109,1.005859,1.281738,-3.112793,-1.159668,-2.669678,13.491211,-54.530640
2021-03-27 01:57:53,1616810273.329106,11.459005,angle,1,1,1,-0.126953,-0.118164,1.023926,4.333496,-4.638672,-3.356934,-2.515869,13.392334,-54.651489
2021-03-27 01:57:53,1616810273.349872,11.479771,angle,1,1,1,-0.199219,0.014160,1.010254,4.516602,-6.347656,-0.671387,-2.384033,13.255005,-54.766846
2021-03-27 01:57:53,1616810273.370636,11.500536,angle,1,1,1,-0.210449,0.061035,1.000000,3.723145,-6.164551,-0.427246,-2.213745,13.112183,-54.915161
2021-03-27 01:57:53,1616810273.389336,11.519236,angle,1,1,1,-0.210449,-0.188477,1.006836,4.699707,-5.004883,-1.342773,-2.081909,12.980347,-55.041504
2021-03-27 01:57:53,1616810273.410101,11.540001,angle,1,1,1,-0.204590,0.015625,0.937988,1.831055,-3.112793,0.610352,-1.999512,12.864990,-55.167847
2021-03-27 01:57:53,1616810273.428799,11.558699,angle,1,1,1,-0.230957,-0.153320,1.030762,2.502441,-2.380371,-1.159668,-1.933594,12.755127,-55.277710
2021-03-27 01:57:53,1616810273.449564,11.579463,angle,1,1,1,-0.145020,0.044434,0.984375,1.953125,-2.685547,0.488281,-1.867676,12.678223,-55.415039
2021-03-27 01:57:53,1616810273.470330,11.600229,angle,1,1,1,-0.115234,-0.033203,1.068848,3.479004,-1.159668,-2.014160,-1.757812,12.656250,-55.585327
2021-03-27 01:57:53,1616810273.489029,11.618929,angle,1,1,1,-0.155762,0.054199,1.031250,3.601074,-1.525879,-0.854492,-1.625977,12.694702,-55.673218
2021-03-27 01:57:53,1616810273.509787,11.639684,angle,1,1,1,-0.245117,0.054199,1.068848,5.432129,-0.793457,0.366211,-1.483154,12.771606,-55.838013
2021-03-27 01:57:53,1616810273.530558,11.660458,angle,1,1,1,-0.176758,0.078613,1.052246,1.525879,-0.061035,0.732422,-1.389771,12.864990,-55.881958
2021-03-27 01:57:53,1616810273.549259,11.679158,angle,1,1,1,-0.104980,-0.046387,0.931152,2.380371,2.502441,3.540039,-1.307373,12.974854,-55.876465
2021-03-27 01:57:53,1616810273.570024,11.699923,angle,1,1,1,-0.171875,-0.074707,1.144531,-1.464844,1.464844,2.441406,-1.351318,13.013306,-55.816040
2021-03-27 01:57:53,1616810273.588748,11.718647,angle,1,1,1,-0.204590,-0.056152,1.038086,-1.770020,1.037598,6.408691,-1.400757,13.062744,-55.684204
2021-03-27 01:57:53,1616810273.609512,11.739412,angle,1,1,1,-0.110840,-0.010254,1.079590,-3.845215,1.342773,4.272461,-1.543579,13.101196,-55.585327
2021-03-27 01:57:53,1616810273.630278,11.760178,angle,1,1,1,-0.259766,-0.037109,1.107422,-4.577637,-1.342773,4.821777,-1.691895,13.128662,-55.431519
2021-03-27 01:57:53,1616810273.648978,11.778877,angle,1,1,1,-0.296875,0.073242,1.076660,-3.051758,-0.793457,6.286621,-1.862183,13.200073,-55.332642
2021-03-27 01:57:53,1616810273.669746,11.799646,angle,1,1,1,-0.254395,0.099609,1.055664,-6.591797,0.000000,3.723145,-2.092896,13.298950,-55.228271
2021-03-27 01:57:53,1616810273.688446,11.818345,angle,1,1,1,-0.241699,-0.110352,0.973633,-4.699707,2.746582,5.004883,-2.312622,13.458252,-55.140381
2021-03-27 01:57:53,1616810273.709212,11.839112,angle,1,1,1,-0.256836,-0.013184,1.139160,-8.239746,2.868652,4.150391,-2.609253,13.573608,-55.090942
2021-03-27 01:57:53,1616810273.729979,11.859878,angle,1,1,1,-0.176270,-0.052246,0.987793,-7.751465,3.051758,5.371094,-2.878418,13.727417,-54.992065
2021-03-27 01:57:53,1616810273.748678,11.878578,angle,1,1,1,-0.018066,0.055664,1.100586,-7.568359,2.929688,5.310059,-3.175049,13.864746,-54.882202
2021-03-27 01:57:53,1616810273.769444,11.899343,angle,1,1,1,-0.085449,0.024414,0.949707,-4.394531,0.732422,4.089355,-3.323364,14.013062,-54.733887
2021-03-27 01:57:53,1616810273.788131,11.918031,angle,1,1,1,-0.069336,-0.057617,1.003906,-1.831055,1.525879,4.882812,-3.482666,14.144897,-54.569092
2021-03-27 01:57:53,1616810273.808896,11.938795,angle,1,1,1,-0.000488,0.154785,0.877930,-1.647949,2.075195,6.347656,-3.499146,14.254761,-54.398804
2021-03-27 01:57:53,1616810273.829669,11.959567,angle,1,1,1,-0.026367,-0.142578,1.020020,2.502441,2.014160,3.479004,-3.449707,14.315186,-54.195557
2021-03-27 01:57:53,1616810273.848372,11.978271,angle,1,1,1,-0.040039,0.000000,0.919922,1.586914,1.525879,4.333496,-3.290405,14.370117,-54.014282
2021-03-27 01:57:53,1616810273.869179,11.999078,angle,1,1,1,0.055176,-0.147461,1.054688,3.601074,2.014160,3.662109,-3.136597,14.375610,-53.805542
2021-03-27 01:57:53,1616810273.887908,12.017806,angle,1,1,1,0.119629,0.117188,1.042969,2.746582,0.610352,5.187988,-2.988281,14.370117,-53.563843
2021-03-27 01:57:53,1616810273.908680,12.038579,angle,1,1,1,0.088867,-0.096191,1.071777,4.394531,-0.976562,3.845215,-2.845459,14.337158,-53.355103
2021-03-27 01:57:53,1616810273.929450,12.059348,angle,1,1,1,0.081543,0.048340,1.005859,0.549316,-1.098633,5.371094,-2.768555,14.276733,-53.063965
2021-03-27 01:57:53,1616810273.948158,12.078057,angle,1,1,1,-0.059570,-0.145996,0.882324,3.051758,1.342773,3.906250,-2.680664,14.260254,-52.833252
2021-03-27 01:57:53,1616810273.968925,12.098825,angle,1,1,1,-0.094238,-0.115723,1.083984,-1.525879,2.624512,3.173828,-2.713623,14.249268,-52.558594
2021-03-27 01:57:53,1616810273.989691,12.119590,angle,1,1,1,0.100098,-0.001953,0.881348,-2.380371,4.089355,5.554199,-2.741089,14.260254,-52.300415
2021-03-27 01:57:54,1616810274.008394,12.138294,angle,1,1,1,0.123047,-0.005371,1.082520,-3.967285,1.770020,4.150391,-2.867432,14.188843,-52.020264
2021-03-27 01:57:54,1616810274.029161,12.159061,angle,1,1,1,0.084473,0.039551,0.908691,-4.455566,1.647949,5.981445,-2.988281,14.139404,-51.696167
2021-03-27 01:57:54,1616810274.047850,12.177749,angle,1,1,1,0.079102,-0.000977,0.988281,-3.540039,0.854492,3.417969,-3.125610,14.057007,-51.448975
2021-03-27 01:57:54,1616810274.068615,12.198515,angle,1,1,1,-0.047852,0.020996,0.952637,-2.624512,-0.610352,2.746582,-3.213501,14.002075,-51.168823
2021-03-27 01:57:54,1616810274.089381,12.219281,angle,1,1,1,-0.053223,-0.018555,0.994629,-1.220703,-0.732422,2.990723,-3.301392,13.941650,-50.949097
2021-03-27 01:57:54,1616810274.108069,12.237969,angle,1,1,1,0.059570,0.104492,0.882812,-1.892090,-0.732422,2.197266,-3.356323,13.864746,-50.745850
2021-03-27 01:57:54,1616810274.128834,12.258733,angle,1,1,1,-0.034668,-0.230469,0.922852,-0.244141,-0.244141,-0.183105,-3.400269,13.765869,-50.570068
2021-03-27 01:57:54,1616810274.149641,12.279540,angle,1,1,1,-0.092285,0.029297,0.922852,-1.770020,0.305176,2.685547,-3.444214,13.666992,-50.388794
2021-03-27 01:57:54,1616810274.170409,12.300309,angle,1,1,1,-0.039062,-0.039062,0.921875,-0.732422,-0.732422,0.122070,-3.477173,13.513184,-50.256958
2021-03-27 01:57:54,1616810274.189110,12.319009,angle,1,1,1,0.088867,0.004395,0.997559,-2.136230,-1.953125,0.854492,-3.537598,13.364868,-50.136108
2021-03-27 01:57:54,1616810274.209877,12.339776,angle,1,1,1,-0.068359,-0.069336,1.014160,-0.976562,-2.441406,-1.770020,-3.587036,13.211060,-50.108643
2021-03-27 01:57:54,1616810274.228578,12.358477,angle,1,1,1,-0.151367,0.016113,1.096191,-2.807617,-5.493164,-0.793457,-3.691406,13.029785,-50.059204
2021-03-27 01:57:54,1616810274.249343,12.379243,angle,1,1,1,-0.068359,0.105469,0.845703,-1.037598,-4.882812,-0.061035,-3.773804,12.870483,-50.086670
2021-03-27 01:57:54,1616810274.270107,12.400007,angle,1,1,1,0.017578,-0.057129,0.908691,-2.807617,-4.577637,-4.150391,-3.894653,12.689209,-50.108643
2021-03-27 01:57:54,1616810274.288809,12.418709,angle,1,1,1,-0.196289,-0.123047,0.888672,0.610352,-2.807617,-2.502441,-3.933105,12.529907,-50.158081
2021-03-27 01:57:54,1616810274.309575,12.439475,angle,1,1,1,-0.190430,0.007324,1.042480,-1.464844,-3.540039,-1.220703,-4.020996,12.332153,-50.218506
2021-03-27 01:57:54,1616810274.328263,12.458163,angle,1,1,1,0.026367,-0.078613,0.878906,-0.305176,-2.258301,-2.258301,-4.026489,12.183838,-50.289917
2021-03-27 01:57:54,1616810274.349026,12.478926,angle,1,1,1,0.123535,-0.108398,0.998047,-1.708984,-3.234863,-2.685547,-4.103394,11.991577,-50.322876
2021-03-27 01:57:54,1616810274.369792,12.499691,angle,1,1,1,-0.113281,-0.101562,0.982422,1.098633,-5.126953,-3.356934,-4.086914,11.799316,-50.410767
2021-03-27 01:57:54,1616810274.388481,12.518380,angle,1,1,1,-0.228516,-0.046875,1.135742,1.220703,-6.835938,-2.441406,-4.114380,11.596069,-50.487671
2021-03-27 01:57:54,1616810274.409247,12.539146,angle,1,1,1,-0.092285,0.047852,0.879883,2.624512,-6.103516,-2.624512,-4.070435,11.431274,-50.663452
2021-03-27 01:57:54,1616810274.430001,12.559901,angle,1,1,1,-0.050781,-0.058594,0.920410,2.136230,-3.967285,-5.615234,-4.037476,11.271973,-50.866699
2021-03-27 01:57:54,1616810274.448702,12.578601,angle,1,1,1,-0.163086,-0.193848,0.948242,3.662109,-2.502441,-4.882812,-3.949585,11.151123,-51.091919
2021-03-27 01:57:54,1616810274.469469,12.599368,angle,1,1,1,-0.127441,-0.072754,0.996094,3.295898,-1.159668,-5.371094,-3.861694,11.030273,-51.383057
2021-03-27 01:57:54,1616810274.488170,12.618070,angle,1,1,1,-0.100098,-0.146484,1.074707,4.455566,-2.624512,-6.286621,-3.751831,10.920410,-51.657715
2021-03-27 01:57:54,1616810274.508935,12.638835,angle,1,1,1,0.002930,-0.008301,1.050781,3.784180,-2.624512,-4.577637,-3.630981,10.827026,-51.926880
2021-03-27 01:57:54,1616810274.529701,12.659601,angle,1,1,1,0.009766,-0.048828,1.087402,4.028320,-2.624512,-6.530762,-3.515625,10.733643,-52.196045
2021-03-27 01:57:54,1616810274.548389,12.678288,angle,1,1,1,-0.036133,-0.064453,1.079590,3.417969,-2.563477,-4.821777,-3.411255,10.684204,-52.399292
2021-03-27 01:57:54,1616810274.569178,12.699077,angle,1,1,1,-0.123047,-0.065918,1.053711,3.784180,-0.488281,-3.601074,-3.345337,10.673218,-52.635498
2021-03-27 01:57:54,1616810274.587868,12.717768,angle,1,1,1,-0.057129,-0.023926,1.006348,0.671387,0.610352,-3.295898,-3.317871,10.700684,-52.827759
2021-03-27 01:57:54,1616810274.608633,12.738532,angle,1,1,1,-0.087891,-0.243652,0.971680,3.662109,4.638672,-3.662109,-3.284912,10.805054,-53.058472
2021-03-27 01:57:54,1616810274.629398,12.759298,angle,1,1,1,-0.106934,0.004395,0.997559,0.366211,4.760742,-3.173828,-3.279419,10.942383,-53.294678
2021-03-27 01:57:54,1616810274.648190,12.778087,angle,1,1,1,-0.181641,-0.241699,1.083984,4.394531,5.859375,-5.065918,-3.224487,11.145630,-53.585815
2021-03-27 01:57:54,1616810274.668975,12.798873,angle,1,1,1,-0.078125,0.108398,1.009277,0.976562,3.723145,-3.173828,-3.180542,11.376343,-53.860474
2021-03-27 01:57:54,1616810274.687723,12.817622,angle,1,1,1,-0.123535,-0.137695,1.073730,3.601074,5.859375,-6.774902,-3.120117,11.634521,-54.234009
2021-03-27 01:57:54,1616810274.708494,12.838394,angle,1,1,1,-0.262695,0.060059,1.098145,0.488281,2.014160,-5.493164,-3.103638,11.854248,-54.558105
2021-03-27 01:57:54,1616810274.729265,12.859164,angle,1,1,1,-0.321777,-0.073242,1.045898,3.479004,2.441406,-5.981445,-3.076172,12.057495,-54.981079
2021-03-27 01:57:54,1616810274.747968,12.877867,angle,1,1,1,-0.128906,0.084961,0.984863,-1.220703,2.197266,-8.117676,-3.136597,12.216797,-55.387573
2021-03-27 01:57:54,1616810274.768734,12.898634,angle,1,1,1,-0.172363,-0.212402,0.988281,0.549316,4.089355,-8.300781,-3.186035,12.381592,-55.810547
2021-03-27 01:57:54,1616810274.787436,12.917335,angle,1,1,1,-0.202148,-0.005859,1.042969,-2.075195,3.417969,-7.568359,-3.290405,12.518921,-56.233521
2021-03-27 01:57:54,1616810274.808203,12.938102,angle,1,1,1,-0.134766,-0.134766,1.026367,-0.427246,4.394531,-7.141113,-3.367310,12.700195,-56.651001
2021-03-27 01:57:54,1616810274.828969,12.958868,angle,1,1,1,0.046875,0.013184,1.092285,-2.685547,3.234863,-6.286621,-3.510132,12.859497,-57.013550
2021-03-27 01:57:54,1616810274.847660,12.977559,angle,1,1,1,-0.084961,-0.159180,1.032715,0.000000,3.051758,-8.483887,-3.587036,13.051758,-57.409058
2021-03-27 01:57:54,1616810274.868427,12.998326,angle,1,1,1,-0.194824,-0.035156,1.168457,-2.868652,2.441406,-5.310059,-3.773804,13.238525,-57.689209
2021-03-27 01:57:54,1616810274.889233,13.019131,angle,1,1,1,-0.158203,0.049316,0.899414,-1.708984,3.906250,-3.173828,-3.889160,13.458252,-57.952881
2021-03-27 01:57:54,1616810274.907934,13.037833,angle,1,1,1,0.027832,-0.172363,1.001465,-2.319336,5.187988,-7.690430,-4.059448,13.628540,-58.255005
2021-03-27 01:57:54,1616810274.928705,13.058604,angle,1,1,1,-0.056152,-0.157715,0.929199,-1.037598,5.371094,-5.126953,-4.180298,13.793335,-58.518677
2021-03-27 01:57:54,1616810274.947409,13.077309,angle,1,1,1,-0.105957,-0.048828,1.187988,-1.525879,3.845215,-3.234863,-4.317627,13.881226,-58.716431
2021-03-27 01:57:54,1616810274.968228,13.098123,angle,1,1,1,0.000000,-0.003906,1.019531,-2.136230,5.310059,-1.159668,-4.432983,13.980103,-58.859253
2021-03-27 01:57:54,1616810274.989016,13.118915,angle,1,1,1,0.075195,-0.013184,0.961426,-2.929688,1.525879,-1.831055,-4.586792,14.057007,-58.952637
2021-03-27 01:57:55,1616810275.007707,13.137606,angle,1,1,1,-0.085449,-0.055664,0.987793,-0.549316,2.014160,-1.831055,-4.658203,14.155884,-59.018555
2021-03-27 01:57:55,1616810275.028472,13.158372,angle,1,1,1,-0.170898,0.046875,1.063477,-1.220703,0.610352,0.366211,-4.757080,14.216309,-58.996582
2021-03-27 01:57:55,1616810275.047165,13.177064,angle,1,1,1,-0.074219,0.145508,0.867676,-0.915527,1.525879,1.586914,-4.855957,14.298706,-59.029541
2021-03-27 01:57:55,1616810275.067933,13.197833,angle,1,1,1,-0.049316,-0.148926,0.902832,0.061035,2.624512,-1.770020,-4.894409,14.436035,-59.024048
2021-03-27 01:57:55,1616810275.088699,13.218599,angle,1,1,1,-0.083496,0.025391,0.895508,-0.427246,4.150391,1.464844,-4.812012,14.512939,-59.002075
2021-03-27 01:57:55,1616810275.109467,13.239367,angle,1,1,1,-0.068848,-0.036621,1.054688,-1.159668,3.662109,1.159668,-4.866943,14.556885,-58.947144
2021-03-27 01:57:55,1616810275.128158,13.258057,angle,1,1,1,0.075195,0.021484,0.961426,-2.136230,2.319336,2.502441,-4.899902,14.611816,-58.859253
2021-03-27 01:57:55,1616810275.148924,13.278824,angle,1,1,1,0.054688,0.010742,1.026855,-2.929688,2.075195,0.976562,-4.982300,14.617310,-58.793335
2021-03-27 01:57:55,1616810275.169706,13.299604,angle,1,1,1,-0.078613,0.018066,1.019531,-2.380371,-1.953125,0.610352,-5.031738,14.595337,-58.716431
2021-03-27 01:57:55,1616810275.188421,13.318321,angle,1,1,1,-0.060059,0.017578,0.962402,-0.488281,-0.122070,2.075195,-5.103149,14.562378,-58.617554
2021-03-27 01:57:55,1616810275.209177,13.339077,angle,1,1,1,-0.002441,0.178223,0.954590,-2.929688,-3.967285,1.281738,-5.152588,14.447021,-58.546143
2021-03-27 01:57:55,1616810275.227913,13.357812,angle,1,1,1,-0.061523,-0.130859,0.865234,0.549316,-1.953125,1.098633,-5.169067,14.342651,-58.458252
2021-03-27 01:57:55,1616810275.248711,13.378610,angle,1,1,1,-0.124023,0.063965,0.903809,-1.708984,-2.441406,2.319336,-5.174561,14.188843,-58.375854
2021-03-27 01:57:55,1616810275.269485,13.399383,angle,1,1,1,-0.066895,-0.074707,0.941406,1.403809,-1.770020,2.319336,-5.130615,14.040527,-58.276978
2021-03-27 01:57:55,1616810275.288197,13.418096,angle,1,1,1,0.008301,0.074219,0.878418,0.000000,-1.647949,4.699707,-5.081177,13.892212,-58.101196
2021-03-27 01:57:55,1616810275.308964,13.438864,angle,1,1,1,0.021484,0.040039,0.935059,1.464844,-1.342773,2.380371,-4.949341,13.732910,-57.958374
2021-03-27 01:57:55,1616810275.327653,13.457553,angle,1,1,1,-0.034668,-0.054199,0.974609,4.394531,-2.441406,2.502441,-4.746094,13.590088,-57.771606
2021-03-27 01:57:55,1616810275.348419,13.478319,angle,1,1,1,-0.035645,0.062500,1.043457,4.211426,-4.089355,3.356934,-4.542847,13.441772,-57.568359
2021-03-27 01:57:55,1616810275.369186,13.499086,angle,1,1,1,-0.066406,0.149902,0.969238,5.187988,-4.638672,4.516602,-4.290161,13.287964,-57.370605
2021-03-27 01:57:55,1616810275.387877,13.517777,angle,1,1,1,-0.078125,-0.020508,1.024902,4.699707,-5.432129,4.516602,-4.075928,13.106689,-57.079468
2021-03-27 01:57:55,1616810275.408631,13.538531,angle,1,1,1,-0.077637,0.129395,0.964844,2.929688,-3.356934,5.004883,-3.894653,12.925415,-56.854248
2021-03-27 01:57:55,1616810275.427442,13.557341,angle,1,1,1,-0.129395,-0.036621,0.990723,3.845215,-4.699707,2.258301,-3.713379,12.700195,-56.656494
2021-03-27 01:57:55,1616810275.448209,13.578109,angle,1,1,1,0.018555,0.043457,1.034180,0.976562,-4.638672,3.845215,-3.576050,12.469482,-56.425781
2021-03-27 01:57:55,1616810275.468978,13.598877,angle,1,1,1,-0.060547,-0.115723,1.001953,2.685547,-4.577637,0.061035,-3.455200,12.227783,-56.326904
2021-03-27 01:57:55,1616810275.487683,13.617582,angle,1,1,1,-0.188477,0.056641,1.117676,0.244141,-7.934570,1.037598,-3.350830,11.964111,-56.178589
2021-03-27 01:57:55,1616810275.508455,13.638354,angle,1,1,1,-0.186523,0.059570,1.018555,3.662109,-7.934570,1.220703,-3.268433,11.722412,-56.107178
2021-03-27 01:57:55,1616810275.529224,13.659124,angle,1,1,1,0.015137,0.284668,0.905273,0.305176,-7.324219,1.342773,-3.153076,11.519165,-56.063232
2021-03-27 01:57:55,1616810275.547926,13.677826,angle,1,1,1,-0.064941,-0.189941,0.982910,4.028320,-3.845215,-2.929688,-3.054199,11.337891,-56.068726
2021-03-27 01:57:55,1616810275.568692,13.698592,angle,1,1,1,-0.143555,0.085449,0.948730,1.586914,-5.065918,1.159668,-2.938843,11.156616,-56.052246
2021-03-27 01:57:55,1616810275.587382,13.717281,angle,1,1,1,-0.151367,-0.056152,1.101562,2.319336,-3.295898,0.000000,-2.900391,10.975342,-56.030273
2021-03-27 01:57:55,1616810275.608151,13.738050,angle,1,1,1,0.018555,0.020508,0.874512,0.671387,-3.601074,2.624512,-2.812500,10.827026,-55.980835
2021-03-27 01:57:55,1616810275.628925,13.758824,angle,1,1,1,0.130859,0.019043,1.051270,0.305176,-1.770020,1.892090,-2.779541,10.673218,-55.909424
2021-03-27 01:57:55,1616810275.647640,13.777540,angle,1,1,1,-0.017090,-0.041016,1.049316,0.732422,-2.563477,1.342773,-2.675171,10.557861,-55.854492
2021-03-27 01:57:55,1616810275.668410,13.798309,angle,1,1,1,-0.119141,-0.048340,1.119629,1.098633,-3.845215,3.417969,-2.620239,10.464478,-55.722656
2021-03-27 01:57:55,1616810275.687116,13.817016,angle,1,1,1,-0.161133,0.065918,1.050293,1.403809,-2.929688,4.028320,-2.592773,10.404053,-55.634766
2021-03-27 01:57:55,1616810275.707881,13.837774,angle,1,1,1,-0.148926,0.148438,0.998535,-1.220703,-2.319336,3.295898,-2.570801,10.382080,-55.563354
2021-03-27 01:57:55,1616810275.728665,13.858564,angle,1,1,1,-0.183594,-0.160645,1.020508,0.305176,0.488281,2.441406,-2.609253,10.398560,-55.458984
2021-03-27 01:57:55,1616810275.747374,13.877274,angle,1,1,1,-0.179199,0.069824,0.972656,-4.028320,1.281738,3.845215,-2.697144,10.442505,-55.360107
2021-03-27 01:57:55,1616810275.768144,13.898044,angle,1,1,1,-0.151367,-0.130859,1.109375,-3.906250,1.403809,3.173828,-2.845459,10.475464,-55.261230
2021-03-27 01:57:55,1616810275.786846,13.916745,angle,1,1,1,-0.008789,0.011719,1.061523,-6.896973,-0.488281,6.286621,-3.065186,10.491943,-55.052490
2021-03-27 01:57:55,1616810275.807658,13.937557,angle,1,1,1,0.001465,-0.034668,1.016113,-7.080078,0.488281,2.929688,-3.295898,10.491943,-54.915161
2021-03-27 01:57:55,1616810275.828432,13.958331,angle,1,1,1,-0.145996,-0.060059,1.074219,-6.530762,-3.234863,3.845215,-3.526611,10.464478,-54.673462
2021-03-27 01:57:55,1616810275.847141,13.977040,angle,1,1,1,-0.185547,0.034180,0.992188,-3.845215,-3.540039,6.591797,-3.751831,10.442505,-54.437256
2021-03-27 01:57:55,1616810275.867911,13.997811,angle,1,1,1,-0.070801,0.177246,0.919922,-5.432129,-2.258301,3.906250,-3.911133,10.442505,-54.255981
2021-03-27 01:57:55,1616810275.886767,14.016663,angle,1,1,1,-0.155273,-0.239746,0.935547,-0.732422,-0.122070,3.845215,-4.020996,10.475464,-54.052734
2021-03-27 01:57:55,1616810275.907552,14.037449,angle,1,1,1,-0.180176,0.070312,0.927734,-2.929688,1.770020,6.042480,-4.097900,10.519409,-53.865967
2021-03-27 01:57:55,1616810275.928341,14.058240,angle,1,1,1,-0.196289,-0.183594,1.094238,-1.220703,1.281738,4.577637,-4.169312,10.563354,-53.662720
2021-03-27 01:57:55,1616810275.947033,14.076933,angle,1,1,1,-0.062012,-0.020996,0.999023,-2.319336,1.403809,7.751465,-4.224243,10.645752,-53.377075
2021-03-27 01:57:55,1616810275.967843,14.097742,angle,1,1,1,-0.005371,-0.022461,1.072754,-2.380371,0.915527,5.920410,-4.295654,10.706177,-53.140869
2021-03-27 01:57:55,1616810275.986569,14.116468,angle,1,1,1,-0.167480,-0.039062,1.085449,-1.464844,-0.122070,6.774902,-4.312134,10.805054,-52.844238
2021-03-27 01:57:56,1616810276.007343,14.137242,angle,1,1,1,-0.266113,-0.065918,1.097168,0.427246,0.061035,7.324219,-4.367065,10.914917,-52.569580
2021-03-27 01:57:56,1616810276.028112,14.158012,angle,1,1,1,-0.188477,0.179199,1.046875,-1.586914,0.671387,7.934570,-4.372559,11.079712,-52.327881
2021-03-27 01:57:56,1616810276.046815,14.176714,angle,1,1,1,-0.160156,-0.196777,1.084473,0.000000,2.258301,6.591797,-4.432983,11.228027,-52.091675
2021-03-27 01:57:56,1616810276.067585,14.197484,angle,1,1,1,-0.151855,0.062500,1.032715,-2.990723,2.380371,6.652832,-4.476929,11.381836,-51.855469
2021-03-27 01:57:56,1616810276.088353,14.218253,angle,1,1,1,-0.166016,-0.193359,1.072754,-0.915527,3.601074,6.103516,-4.542847,11.519165,-51.586304
2021-03-27 01:57:56,1616810276.109121,14.239021,angle,1,1,1,0.020996,0.104492,0.997070,-3.906250,2.319336,9.216309,-4.636230,11.667480,-51.251221
2021-03-27 01:57:56,1616810276.127824,14.257724,angle,1,1,1,0.030762,-0.083984,1.057129,-0.793457,4.150391,6.225586,-4.680176,11.810303,-50.943604
2021-03-27 01:57:56,1616810276.148592,14.278492,angle,1,1,1,-0.056152,-0.011719,1.004883,-0.976562,1.708984,6.958008,-4.680176,11.953125,-50.537109
2021-03-27 01:57:56,1616810276.167283,14.297182,angle,1,1,1,-0.096680,-0.073242,1.146484,2.319336,2.380371,6.774902,-4.647217,12.095947,-50.147095
2021-03-27 01:57:56,1616810276.188051,14.317951,angle,1,1,1,-0.031738,0.161133,0.920410,-0.488281,1.342773,6.774902,-4.581299,12.233276,-49.729614
2021-03-27 01:57:56,1616810276.208832,14.338729,angle,1,1,1,-0.032227,-0.216309,0.994629,2.441406,2.929688,5.126953,-4.515381,12.343140,-49.328613
2021-03-27 01:57:56,1616810276.227559,14.357458,angle,1,1,1,-0.033691,0.047852,0.763184,-1.281738,3.417969,5.004883,-4.460449,12.453003,-48.944092
2021-03-27 01:57:56,1616810276.248333,14.378232,angle,1,1,1,0.009766,-0.115723,1.040039,2.746582,3.662109,4.028320,-4.367065,12.485962,-48.543091
2021-03-27 01:57:56,1616810276.267077,14.396954,angle,1,1,1,0.074707,0.024414,0.954102,-0.183105,1.586914,4.638672,-4.301147,12.535400,-48.103638
2021-03-27 01:57:56,1616810276.287845,14.417745,angle,1,1,1,-0.017578,-0.053223,1.159668,3.784180,0.183105,3.845215,-4.185791,12.546387,-47.702637
2021-03-27 01:57:56,1616810276.308615,14.438515,angle,1,1,1,0.113770,0.195801,0.962402,0.427246,-1.220703,7.019043,-4.114380,12.562866,-47.224731
2021-03-27 01:57:56,1616810276.327341,14.457239,angle,1,1,1,-0.020508,-0.135254,0.903809,3.662109,0.732422,3.173828,-4.092407,12.590332,-46.796265
2021-03-27 01:57:56,1616810276.348118,14.478017,angle,1,1,1,-0.204102,0.054199,0.966309,1.037598,2.319336,3.967285,-4.004517,12.639771,-46.373291
2021-03-27 01:57:56,1616810276.366955,14.496854,angle,1,1,1,-0.066895,-0.290527,0.955078,2.807617,5.737305,3.417969,-3.922119,12.711182,-46.027222
2021-03-27 01:57:56,1616810276.387750,14.517649,angle,1,1,1,0.169922,0.123047,0.898926,-2.319336,5.554199,4.516602,-3.916626,12.777100,-45.653687
2021-03-27 01:57:56,1616810276.408525,14.538424,angle,1,1,1,0.131348,-0.225098,1.002930,0.122070,6.591797,1.159668,-3.905640,12.870483,-45.285645
2021-03-27 01:57:56,1616810276.427222,14.557122,angle,1,1,1,0.162109,0.078125,1.027832,-3.906250,4.394531,3.784180,-3.960571,12.919922,-44.851685
2021-03-27 01:57:56,1616810276.447992,14.577892,angle,1,1,1,0.095215,-0.147949,0.983398,-1.037598,3.723145,1.647949,-3.971558,12.958374,-44.483643
2021-03-27 01:57:56,1616810276.466693,14.596593,angle,1,1,1,0.007324,-0.023438,1.024902,-1.953125,1.098633,2.502441,-4.037476,12.980347,-44.033203
2021-03-27 01:57:56,1616810276.487467,14.617366,angle,1,1,1,-0.046875,0.020508,0.938477,0.732422,0.610352,3.112793,-4.031982,12.985840,-43.654175
2021-03-27 01:57:56,1616810276.508236,14.638136,angle,1,1,1,0.026855,-0.029297,0.926758,-0.183105,-0.183105,1.464844,-4.037476,12.963867,-43.253174
2021-03-27 01:57:56,1616810276.526940,14.656840,angle,1,1,1,0.028320,-0.068359,0.897949,2.136230,0.427246,1.770020,-3.988037,12.892456,-42.940063
2021-03-27 01:57:56,1616810276.547713,14.677612,angle,1,1,1,-0.073242,-0.080566,0.962891,0.854492,-1.159668,0.488281,-3.960571,12.777100,-42.637939
2021-03-27 01:57:56,1616810276.568483,14.698382,angle,1,1,1,-0.036621,-0.127441,0.936523,2.502441,-0.610352,1.831055,-3.889160,12.667236,-42.324829
2021-03-27 01:57:56,1616810276.587188,14.717088,angle,1,1,1,0.022461,0.002441,0.970703,0.549316,-0.732422,1.098633,-3.856201,12.518921,-42.066650
2021-03-27 01:57:56,1616810276.607958,14.737857,angle,1,1,1,-0.025391,-0.119141,1.011719,2.502441,-1.281738,-0.976562,-3.762817,12.398071,-41.824951
2021-03-27 01:57:56,1616810276.626647,14.756547,angle,1,1,1,-0.059082,-0.042480,1.045410,1.647949,-2.197266,1.220703,-3.729858,12.277222,-41.561279
2021-03-27 01:57:56,1616810276.647423,14.777322,angle,1,1,1,-0.057129,0.069336,0.933594,1.770020,-2.441406,1.525879,-3.652954,12.172852,-41.308594
2021-03-27 01:57:56,1616810276.668195,14.798094,angle,1,1,1,-0.094238,-0.160645,0.944824,1.708984,-1.220703,-0.549316,-3.636475,12.073975,-41.022949
2021-03-27 01:57:56,1616810276.686885,14.816785,angle,1,1,1,-0.056641,0.015137,0.913574,0.976562,-0.305176,1.892090,-3.587036,11.997070,-40.797729
2021-03-27 01:57:56,1616810276.707657,14.837556,angle,1,1,1,-0.094727,-0.148926,1.038086,2.136230,-1.281738,-1.525879,-3.543091,11.870728,-40.588989
2021-03-27 01:57:56,1616810276.726359,14.856259,angle,1,1,1,-0.015625,-0.014648,0.941895,1.586914,-2.746582,0.244141,-3.493652,11.744385,-40.391235
2021-03-27 01:57:56,1616810276.747134,14.877033,angle,1,1,1,-0.003418,0.002441,1.028809,1.159668,-3.479004,-2.197266,-3.455200,11.585083,-40.253906
2021-03-27 01:57:56,1616810276.767907,14.897807,angle,1,1,1,-0.127930,-0.077637,0.993652,2.624512,-5.187988,-2.197266,-3.389282,11.420288,-40.072632
2021-03-27 01:57:56,1616810276.786611,14.916510,angle,1,1,1,-0.114746,-0.005859,0.976074,2.868652,-3.906250,-0.732422,-3.350830,11.277466,-39.990234
2021-03-27 01:57:56,1616810276.807381,14.937281,angle,1,1,1,-0.093750,0.102051,0.973145,1.220703,-3.967285,-2.563477,-3.306885,11.140137,-39.946289
2021-03-27 01:57:56,1616810276.826177,14.956076,angle,1,1,1,-0.150879,-0.192383,0.945312,3.540039,-1.953125,-2.807617,-3.246460,11.046753,-39.924316
2021-03-27 01:57:56,1616810276.846971,14.976871,angle,1,1,1,-0.138672,0.040039,0.984375,0.854492,-1.037598,-2.075195,-3.218994,10.969849,-39.962769
2021-03-27 01:57:56,1616810276.867743,14.997643,angle,1,1,1,-0.141602,-0.118652,1.046387,2.380371,-1.953125,-4.455566,-3.175049,10.898438,-40.006714
2021-03-27 01:57:56,1616810276.886483,15.016380,angle,1,1,1,-0.066895,0.023926,1.004395,1.220703,-2.258301,-2.990723,-3.136597,10.838013,-40.067139
2021-03-27 01:57:56,1616810276.907303,15.037202,angle,1,1,1,-0.047852,-0.000977,1.086914,1.403809,-3.295898,-5.676270,-3.103638,10.761108,-40.209961
2021-03-27 01:57:56,1616810276.926027,15.055922,angle,1,1,1,-0.131836,-0.041992,1.120605,1.098633,-4.638672,-5.981445,-3.081665,10.673218,-40.303345
2021-03-27 01:57:56,1616810276.946819,15.076718,angle,1,1,1,-0.160645,-0.009766,1.047852,1.525879,-3.540039,-4.455566,-3.098145,10.596313,-40.418701
2021-03-27 01:57:56,1616810276.967589,15.097489,angle,1,1,1,-0.041992,0.104492,1.010742,-1.037598,-3.295898,-4.943848,-3.131104,10.530396,-40.495605
2021-03-27 01:57:56,1616810276.986290,15.116189,angle,1,1,1,-0.084473,-0.275879,1.008301,0.793457,-0.549316,-6.042480,-3.191528,10.480957,-40.545044
2021-03-27 01:57:57,1616810277.007083,15.136983,angle,1,1,1,-0.084961,0.056641,0.963867,-1.464844,-0.122070,-3.234863,-3.268433,10.453491,-40.561523
2021-03-27 01:57:57,1616810277.027854,15.157754,angle,1,1,1,-0.115723,-0.149414,1.094238,-0.305176,1.647949,-4.821777,-3.323364,10.458984,-40.556030
2021-03-27 01:57:57,1616810277.048625,15.178525,angle,1,1,1,-0.034180,-0.090820,0.970215,-0.854492,2.197266,-2.380371,-3.389282,10.519409,-40.501099
2021-03-27 01:57:57,1616810277.067331,15.197231,angle,1,1,1,0.011230,0.015625,1.067383,-1.708984,3.112793,-3.540039,-3.482666,10.607300,-40.484619
2021-03-27 01:57:57,1616810277.088099,15.217998,angle,1,1,1,-0.108398,-0.125488,0.966797,1.037598,2.868652,-5.615234,-3.466187,10.761108,-40.490112
2021-03-27 01:57:57,1616810277.106801,15.236700,angle,1,1,1,-0.187500,-0.029785,1.086914,0.000000,2.929688,-3.601074,-3.532104,10.936890,-40.484619
2021-03-27 01:57:57,1616810277.127572,15.257471,angle,1,1,1,-0.228516,0.049316,0.881836,2.990723,3.723145,-3.417969,-3.477173,11.151123,-40.588989
2021-03-27 01:57:57,1616810277.148340,15.278239,angle,1,1,1,-0.160645,-0.010742,0.999512,0.915527,2.929688,-6.347656,-3.482666,11.321411,-40.671387
2021-03-27 01:57:57,1616810277.167041,15.296940,angle,1,1,1,-0.198242,-0.170410,0.861328,4.455566,4.821777,-5.310059,-3.394775,11.513672,-40.836182
2021-03-27 01:57:57,1616810277.187833,15.317732,angle,1,1,1,-0.147461,0.008789,0.956055,0.915527,3.662109,-6.713867,-3.372803,11.634521,-41.061401
2021-03-27 01:57:57,1616810277.206639,15.336537,angle,1,1,1,-0.193848,-0.257812,1.083984,3.417969,4.211426,-7.873535,-3.312378,11.771851,-41.319580
2021-03-27 01:57:57,1616810277.227406,15.357305,angle,1,1,1,-0.060059,0.041504,1.064941,-0.610352,2.075195,-4.272461,-3.339844,11.898193,-41.561279
2021-03-27 01:57:57,1616810277.248177,15.378077,angle,1,1,1,-0.014648,-0.090820,1.110840,0.427246,4.089355,-6.469727,-3.367310,12.062988,-41.879883
2021-03-27 01:57:57,1616810277.266880,15.396779,angle,1,1,1,-0.160645,-0.033203,1.054688,-1.464844,3.234863,-5.859375,-3.433228,12.266235,-42.138062
2021-03-27 01:57:57,1616810277.287650,15.417550,angle,1,1,1,-0.258301,-0.157227,1.163574,0.122070,4.089355,-6.164551,-3.554077,12.502441,-42.451172
2021-03-27 01:57:57,1616810277.306439,15.436338,angle,1,1,1,-0.226074,0.217285,0.914062,-1.953125,4.150391,-2.929688,-3.636475,12.782593,-42.797241
2021-03-27 01:57:57,1616810277.327207,15.457106,angle,1,1,1,-0.107422,-0.117188,1.098145,-2.624512,5.371094,-8.117676,-3.823242,13.051758,-43.137817
2021-03-27 01:57:57,1616810277.347992,15.477889,angle,1,1,1,-0.080566,-0.231445,0.857422,-3.356934,7.751465,-5.981445,-3.971558,13.337402,-43.489380
2021-03-27 01:57:57,1616810277.366704,15.496604,angle,1,1,1,-0.138184,-0.010254,1.080566,-5.615234,5.859375,-4.943848,-4.235229,13.524170,-43.824463
2021-03-27 01:57:57,1616810277.387472,15.517371,angle,1,1,1,-0.137207,-0.139160,1.044922,-4.028320,3.723145,-5.126953,-4.432983,13.645020,-44.110107
2021-03-27 01:57:57,1616810277.406288,15.536186,angle,1,1,1,0.054688,0.037598,1.068848,-6.591797,-1.037598,-2.502441,-4.696655,13.666992,-44.296875
2021-03-27 01:57:57,1616810277.427086,15.556985,angle,1,1,1,-0.023926,-0.089355,0.987305,-3.601074,0.061035,-5.676270,-4.877930,13.628540,-44.500122
2021-03-27 01:57:57,1616810277.447857,15.577756,angle,1,1,1,-0.156738,-0.029785,1.026855,-3.601074,-3.356934,-3.784180,-5.031738,13.557129,-44.538574
2021-03-27 01:57:57,1616810277.466590,15.596489,angle,1,1,1,-0.158691,-0.024902,1.015625,0.305176,-1.525879,-2.075195,-5.147095,13.518677,-44.588013
2021-03-27 01:57:57,1616810277.487361,15.617261,angle,1,1,1,-0.085938,0.213867,0.884277,-0.549316,-0.793457,-1.464844,-5.152588,13.524170,-44.653931
2021-03-27 01:57:57,1616810277.506064,15.635964,angle,1,1,1,0.008789,0.017578,0.936523,0.305176,1.281738,-3.662109,-5.147095,13.557129,-44.653931
2021-03-27 01:57:57,1616810277.526831,15.656731,angle,1,1,1,0.016602,-0.182617,0.964355,2.075195,4.577637,-2.563477,-5.136108,13.628540,-44.620972
2021-03-27 01:57:57,1616810277.547602,15.677501,angle,1,1,1,-0.008301,0.088379,0.921875,-1.220703,3.601074,-0.488281,-5.114136,13.694458,-44.560547
2021-03-27 01:57:57,1616810277.566305,15.696204,angle,1,1,1,-0.053711,-0.108887,1.087402,-0.061035,4.089355,-2.319336,-5.147095,13.760376,-44.428711
2021-03-27 01:57:57,1616810277.587092,15.716992,angle,1,1,1,-0.054199,-0.065918,0.898438,-0.549316,3.906250,0.366211,-5.147095,13.864746,-44.258423
2021-03-27 01:57:57,1616810277.607861,15.737761,angle,1,1,1,0.079102,0.042969,1.022949,-3.540039,4.455566,0.183105,-5.234985,13.947144,-44.077148
2021-03-27 01:57:57,1616810277.626563,15.756462,angle,1,1,1,0.025391,-0.032715,0.998535,-2.685547,3.234863,-0.915527,-5.278931,14.007568,-43.912354
2021-03-27 01:57:57,1616810277.647334,15.777233,angle,1,1,1,-0.062012,0.022949,1.095215,-4.089355,0.854492,0.305176,-5.361328,14.029541,-43.670654
2021-03-27 01:57:57,1616810277.666025,15.795925,angle,1,1,1,-0.091797,0.046387,0.938965,-2.868652,-0.976562,1.403809,-5.476685,14.007568,-43.450928
2021-03-27 01:57:57,1616810277.686795,15.816694,angle,1,1,1,0.052246,0.191406,0.934082,-5.065918,-2.441406,0.427246,-5.570068,13.947144,-43.220215
2021-03-27 01:57:57,1616810277.707551,15.837451,angle,1,1,1,-0.109375,-0.189453,0.902832,-1.342773,-1.403809,-0.061035,-5.646973,13.826294,-42.984009
2021-03-27 01:57:57,1616810277.726254,15.856154,angle,1,1,1,-0.139160,0.099609,0.925293,-2.746582,-4.150391,1.342773,-5.696411,13.634033,-42.720337
2021-03-27 01:57:57,1616810277.747024,15.876923,angle,1,1,1,-0.194336,-0.094238,0.982422,0.915527,-4.455566,-0.488281,-5.712891,13.403320,-42.500610
2021-03-27 01:57:57,1616810277.765751,15.895650,angle,1,1,1,-0.021973,0.098633,0.890137,-1.159668,-5.859375,1.403809,-5.679932,13.167114,-42.291870
2021-03-27 01:57:57,1616810277.786520,15.916419,angle,1,1,1,0.120117,-0.032227,1.012695,-0.244141,-4.028320,-2.319336,-5.652466,12.914429,-42.121582
2021-03-27 01:57:57,1616810277.807292,15.937191,angle,1,1,1,-0.066895,-0.087402,0.937500,2.624512,-4.943848,-2.258301,-5.498657,12.672729,-42.017212
2021-03-27 01:57:57,1616810277.825995,15.955894,angle,1,1,1,-0.150879,0.010742,1.103027,1.831055,-7.446289,-2.624512,-5.405273,12.420044,-41.885376
2021-03-27 01:57:57,1616810277.846762,15.976661,angle,1,1,1,-0.119141,0.056152,0.977539,4.150391,-6.774902,-0.366211,-5.273438,12.211304,-41.808472
2021-03-27 01:57:57,1616810277.865561,15.995461,angle,1,1,1,0.070312,0.271973,0.940430,0.854492,-6.835938,-0.488281,-5.147095,12.013550,-41.704102
2021-03-27 01:57:57,1616810277.886377,16.016270,angle,1,1,1,-0.059570,-0.208496,0.946289,4.272461,-3.967285,-3.723145,-5.031738,11.821289,-41.627197
2021-03-27 01:57:57,1616810277.907176,16.037071,angle,1,1,1,-0.165039,0.048340,0.925781,1.770020,-4.211426,-0.366211,-4.916382,11.640015,-41.511841
2021-03-27 01:57:57,1616810277.927956,16.057855,angle,1,1,1,-0.217285,-0.068359,1.090820,2.136230,-3.601074,-1.770020,-4.844971,11.447754,-41.412964
2021-03-27 01:57:57,1616810277.946749,16.076646,angle,1,1,1,-0.095703,-0.025879,0.908691,2.197266,-2.807617,-0.732422,-4.707642,11.310425,-41.314087
2021-03-27 01:57:57,1616810277.967528,16.097427,angle,1,1,1,0.049316,0.017090,0.958496,0.244141,-1.525879,-0.549316,-4.652710,11.189575,-41.204224
2021-03-27 01:57:57,1616810277.988298,16.118198,angle,1,1,1,0.023438,-0.008301,1.030273,0.488281,-1.831055,-2.014160,-4.575806,11.079712,-41.176758
2021-03-27 01:57:58,1616810278.007002,16.136901,angle,1,1,1,-0.069336,-0.080566,1.075684,1.586914,-3.601074,-2.746582,-4.465942,10.980835,-41.116333
2021-03-27 01:57:58,1616810278.027838,16.157737,angle,1,1,1,-0.101074,-0.044922,1.094238,1.342773,-4.150391,-0.671387,-4.443970,10.870972,-41.033936
2021-03-27 01:57:58,1616810278.046542,16.176441,angle,1,1,1,-0.056641,0.073730,0.994629,0.671387,-4.516602,1.586914,-4.383545,10.783081,-40.979004
2021-03-27 01:57:58,1616810278.067313,16.197212,angle,1,1,1,-0.061523,0.069336,0.997070,2.319336,-2.441406,-1.281738,-4.345093,10.689697,-40.880127
2021-03-27 01:57:58,1616810278.088082,16.217982,angle,1,1,1,-0.097168,-0.195801,0.940430,2.868652,-0.793457,2.380371,-4.268188,10.645752,-40.737305
2021-03-27 01:57:58,1616810278.106786,16.236686,angle,1,1,1,-0.139648,0.028320,0.876465,0.366211,1.342773,2.563477,-4.202271,10.629272,-40.594482
2021-03-27 01:57:58,1616810278.127557,16.257456,angle,1,1,1,-0.140137,-0.155273,1.094727,3.479004,1.220703,1.159668,-4.114380,10.634766,-40.462646
2021-03-27 01:57:58,1616810278.146247,16.276147,angle,1,1,1,-0.115723,-0.137207,0.990723,1.708984,0.549316,4.760742,-4.026489,10.667725,-40.308838
